TimeStamp(s),FrameCounter,AccX,AccY,AccZ,GyrX,GyrY,GyrZ,EulerX,EulerY,EulerZ,Description,FALL
0.01,1,-0.053,-1.004,0.0,-0.0572958,0.4010706,0.3437748,87.78862475999998,-2.85906042,-20.20249908,T01,0
0.0199999999999999,2,-0.054,-1.007,0.0,-0.0572958,0.2291832,0.2291832,87.78862475999998,-2.86479,-20.1967695,T01,0
0.03,3,-0.056,-1.009,-0.004,-0.4583664000000001,0.286479,0.1718874,87.78289518,-2.86479,-20.1967695,T01,0
0.0399999999999999,4,-0.053,-1.011,-0.009,-0.9167328,0.4583664000000001,0.2291832,87.77143602000002,-2.87051958,-20.19103992,T01,0
0.0499999999999999,5,-0.052,-1.012,-0.011,-1.0886202,0.3437748,0.4010706,87.81727266,-2.84187168,-20.19103992,T01,0
0.0599999999999999,6,-0.053,-1.008,-0.012,-1.0886202,0.1145916,0.4010706,87.8058135,-2.84187168,-20.19103992,T01,0
0.0699999999999999,7,-0.053,-1.006,-0.014,-1.145916,0.1718874,0.1718874,87.79435434000001,-2.84760126,-20.19103992,T01,0
0.0799999999999999,8,-0.052,-1.005,-0.013,-1.3178034,0.4583664000000001,0.0572958,87.78289518,-2.84760126,-20.18531034,T01,0
0.0899999999999999,9,-0.053,-1.001,-0.011,-1.145916,0.3437748,0.1718874,87.77143602000002,-2.84760126,-20.17958076,T01,0
0.0999999999999999,10,-0.055,-1.0,-0.011,-0.9167328,-0.0572958,0.1718874,87.83446140000002,-2.88197874,-20.19103992,T01,0
0.1099999999999999,11,-0.059,-1.001,-0.004,-0.5156622000000001,-0.5156622000000001,0.1145916,87.82873182,-2.88770832,-20.19103992,T01,0
0.1199999999999999,12,-0.059,-1.006,-0.004,-0.572958,-0.286479,0.1145916,87.82300224,-2.88770832,-20.1967695,T01,0
0.1299999999999999,13,-0.06,-1.009,-0.003,-0.6302538000000001,-0.1145916,0.0572958,87.81727266,-2.88770832,-20.1967695,T01,0
0.1399999999999999,14,-0.058,-1.015,-0.008,-0.9740286,0.1718874,0.0,87.8058135,-2.88770832,-20.1967695,T01,0
0.15,15,-0.056,-1.015,-0.014,-1.3750992,0.2291832,0.0,87.8058135,-2.8934379,-20.1967695,T01,0
0.1599999999999999,16,-0.056,-1.011,-0.011,-1.2032118,0.4010706,0.0572958,87.78862475999998,-2.8934379,-20.19103992,T01,0
0.1699999999999999,17,-0.057,-1.007,-0.009,-1.0886202,0.9740286,0.0572958,87.77716559999998,-2.8934379,-20.17958076,T01,0
0.18,18,-0.058,-1.005,-0.01,-1.145916,1.2605076000000002,0.0,87.76570644,-2.8934379,-20.168121600000006,T01,0
0.1899999999999999,19,-0.055,-1.001,-0.013,-1.0313244,1.0886202,0.0,87.75424728,-2.8934379,-20.15666244,T01,0
0.1999999999999999,20,-0.05,-0.998,-0.0069999999999999,-0.572958,0.4010706,0.0,87.96051216,-2.79030546,-20.168121600000006,T01,0
0.2099999999999999,21,-0.047,-1.002,-0.003,-0.5156622000000001,-0.3437748,0.0572958,87.95478258,-2.79030546,-20.17385118,T01,0
0.2199999999999999,22,-0.047,-1.008,-0.002,-0.7448454000000001,-0.6302538000000001,0.1145916,87.94905299999998,-2.79030546,-20.17958076,T01,0
0.2299999999999999,23,-0.049,-1.011,-0.005,-1.0886202,-0.4583664000000001,0.0572958,87.93759384,-2.79030546,-20.18531034,T01,0
0.2399999999999999,24,-0.053,-1.013,-0.009,-1.432395,-0.3437748,0.0572958,87.92040510000002,-2.79030546,-20.18531034,T01,0
0.2499999999999999,25,-0.055,-1.014,-0.012,-1.5469866,-0.2291832,0.0,87.91467551999996,-2.8074942000000003,-20.19103992,T01,0
0.2599999999999999,26,-0.056,-1.012,-0.017,-1.5469866,-0.1145916,0.0,87.89748678,-2.8074942000000003,-20.19103992,T01,0
0.2699999999999999,27,-0.054,-1.006,-0.019,-1.4896908000000002,-0.2291832,0.0572958,87.88602762000002,-2.81322378,-20.1967695,T01,0
0.2799999999999999,28,-0.051,-0.999,-0.015,-0.9740286,-0.572958,0.2291832,87.87456846,-2.81322378,-20.20249908,T01,0
0.29,29,-0.051,-0.997,-0.011,-0.572958,-0.7448454000000001,0.286479,87.86883888,-2.81895336,-20.20822866,T01,0
0.3,30,-0.052,-0.998,-0.012,-0.4583664000000001,-0.6302538000000001,0.2291832,87.88602762000002,-2.80176462,-20.21395824,T01,0
0.3099999999999999,31,-0.054,-1.002,-0.011,-0.286479,-0.4583664000000001,0.1718874,87.88602762000002,-2.8074942000000003,-20.21968782,T01,0
0.3199999999999999,32,-0.057,-1.004,-0.008,-0.0572958,-0.4010706,0.2291832,87.88602762000002,-2.8074942000000003,-20.2254174,T01,0
0.3299999999999999,33,-0.058,-1.004,-0.005,0.5156622000000001,-0.4583664000000001,0.286479,87.8917572,-2.81322378,-20.23114698,T01,0
0.3399999999999999,34,-0.059,-1.01,-0.005,0.572958,-0.6302538000000001,0.4583664000000001,87.89748678,-2.81895336,-20.23687656,T01,0
0.35,35,-0.059,-1.011,-0.004,0.1718874,-0.7448454000000001,0.4010706,88.0063488,-2.8934379,-20.2540653,T01,0
0.3599999999999999,36,-0.059,-1.013,-0.008,0.0,-0.4010706,0.0572958,88.0063488,-2.8934379,-20.25979488,T01,0
0.3699999999999999,37,-0.058,-1.011,-0.01,-0.0572958,-0.1145916,0.0,88.0063488,-2.8934379,-20.25979488,T01,0
0.3799999999999999,38,-0.057,-1.008,-0.011,0.0,0.0572958,-0.0572958,88.0063488,-2.8934379,-20.25979488,T01,0
0.3899999999999999,39,-0.057,-1.004,-0.01,0.286479,0.1718874,0.0572958,88.0063488,-2.8934379,-20.2540653,T01,0
0.3999999999999999,40,-0.057,-1.003,-0.009,0.5156622000000001,0.1718874,0.2291832,88.03499670000002,-2.9220858,-20.2540653,T01,0
0.4099999999999999,41,-0.056,-1.002,-0.009,0.572958,0.0572958,0.286479,88.04072628,-2.92781538,-20.2540653,T01,0
0.4199999999999999,42,-0.057,-1.003,-0.006,0.6302538000000001,-0.1145916,0.4010706,88.04645586000002,-2.92781538,-20.2540653,T01,0
0.4299999999999999,43,-0.057,-1.005,-0.006,0.5156622000000001,-0.1718874,0.3437748,88.05218544,-2.93354496,-20.25979488,T01,0
0.4399999999999999,44,-0.059,-1.008,-0.005,0.1718874,0.0,0.286479,88.05791502,-2.93927454,-20.25979488,T01,0
0.4499999999999999,45,-0.058,-1.013,-0.0069999999999999,0.0,0.2291832,0.4010706,88.08656292,-2.96219286,-20.25979488,T01,0
0.4599999999999999,46,-0.058,-1.012,-0.009,-0.3437748,0.4010706,0.572958,88.08083334,-2.96792244,-20.2540653,T01,0
0.4699999999999999,47,-0.06,-1.008,-0.008,-0.5156622000000001,0.572958,0.7448454000000001,88.07510376,-2.9736520200000003,-20.24833572,T01,0
0.4799999999999999,48,-0.062,-1.008,-0.01,-0.7448454000000001,0.6875496,0.8021411999999999,88.06937418,-2.98511118,-20.23687656,T01,0
0.4899999999999999,49,-0.061,-1.007,-0.013,-1.2605076000000002,1.0313244,0.6875496,88.05791502,-2.99084076,-20.23114698,T01,0
0.4999999999999999,50,-0.061,-1.002,-0.015,-1.3750992,1.0313244,0.6875496,88.02926712000001,-3.0137590800000003,-20.21968782,T01,0
0.5099999999999999,51,-0.06,-1.001,-0.015,-1.0886202,0.9740286,0.4583664000000001,88.01780796,-3.0137590800000003,-20.20822866,T01,0
0.5199999999999999,52,-0.058,-1.0,-0.01,-0.6302538000000001,0.8594370000000001,0.286479,88.01207838,-3.01948866,-20.1967695,T01,0
0.5299999999999999,53,-0.062,-1.004,-0.006,-0.4583664000000001,0.8594370000000001,0.1145916,88.0063488,-3.01948866,-20.19103992,T01,0
0.5399999999999999,54,-0.063,-1.006,-0.009,-0.7448454000000001,0.9167328,0.0,87.99488964000004,-3.01948866,-20.17958076,T01,0
0.5499999999999999,55,-0.064,-1.008,-0.009,-0.6875496,0.572958,0.0,88.01780796,-3.07105488,-20.17958076,T01,0
0.5599999999999999,56,-0.065,-1.012,-0.009,-0.572958,0.1145916,0.0,88.01207838,-3.07105488,-20.17385118,T01,0
0.57,57,-0.062,-1.014,-0.01,-0.572958,-0.0572958,0.0572958,88.0063488,-3.07105488,-20.17958076,T01,0
0.58,58,-0.06,-1.015,-0.0069999999999999,-0.6302538000000001,0.3437748,0.1145916,88.00061922,-3.07105488,-20.17385118,T01,0
0.59,59,-0.059,-1.014,-0.0069999999999999,-1.2032118,1.4896908000000002,0.286479,87.98343048000002,-3.07678446,-20.15666244,T01,0
0.5999999999999999,60,-0.06,-1.01,-0.009,-2.1772404,2.1772404,0.4583664000000001,87.96624174,-3.0825140400000004,-20.13374412,T01,0
0.6099999999999999,61,-0.06,-1.004,-0.013,-2.8074942000000003,1.9480572,0.4583664000000001,87.93759384,-3.08824362,-20.11655538,T01,0
0.6199999999999999,62,-0.057,-0.998,-0.02,-3.0939732,1.4896908000000002,0.4583664000000001,87.90321636,-3.0939732,-20.09936664,T01,0
0.6299999999999999,63,-0.056,-0.993,-0.021,-2.4064236,1.0313244,0.5156622000000001,87.87456846,-3.0997027800000003,-20.09363706,T01,0
0.6399999999999999,64,-0.057,-0.995,-0.019,-1.3750992,0.6302538000000001,0.4010706,87.8631093,-3.1054323600000004,-20.08790748,T01,0
0.6499999999999999,65,-0.059,-0.999,-0.018,-0.7448454000000001,0.1718874,0.286479,87.84592056,-3.11689152,-20.0821779,T01,0
0.6599999999999999,66,-0.061,-1.004,-0.011,-0.286479,-0.1718874,0.1145916,87.84592056,-3.11689152,-20.0821779,T01,0
0.6699999999999999,67,-0.063,-1.01,-0.006,-0.1718874,-0.1145916,-0.0572958,87.84019098,-3.11689152,-20.08790748,T01,0
0.6799999999999999,68,-0.063,-1.017,-0.001,-0.4010706,0.5156622000000001,-0.1145916,87.83446140000002,-3.11689152,-20.0821779,T01,0
0.69,69,-0.062,-1.02,-0.0069999999999999,-0.8594370000000001,1.0313244,-0.1718874,87.82873182,-3.11116194,-20.07071874,T01,0
0.7,70,-0.058,-1.014,-0.016,-1.2032118,0.8594370000000001,-0.1718874,87.81154308,-3.1054323600000004,-20.06498916,T01,0
0.7099999999999999,71,-0.056,-1.006,-0.017,-1.0313244,0.4010706,0.0,87.80008391999998,-3.1054323600000004,-20.05925958,T01,0
0.7199999999999999,72,-0.053,-0.999,-0.018,-0.7448454000000001,-0.0572958,0.2291832,87.79435434000001,-3.1054323600000004,-20.05925958,T01,0
0.7299999999999999,73,-0.053,-0.996,-0.018,-0.4583664000000001,-0.4583664000000001,0.4010706,87.78862475999998,-3.11116194,-20.06498916,T01,0
0.7399999999999999,74,-0.053,-0.997,-0.016,-0.1145916,-0.8021411999999999,0.5156622000000001,87.78862475999998,-3.11689152,-20.07071874,T01,0
0.7499999999999999,75,-0.055,-0.999,-0.011,0.286479,-1.145916,0.4583664000000001,87.81154308,-3.11689152,-20.0821779,T01,0
0.7599999999999999,76,-0.06,-1.004,-0.011,0.5156622000000001,-1.2605076000000002,0.1718874,87.81727266,-3.11689152,-20.09936664,T01,0
0.7699999999999999,77,-0.063,-1.007,-0.014,0.572958,-1.2605076000000002,0.0,87.82300224,-3.11689152,-20.1108258,T01,0
0.7799999999999999,78,-0.064,-1.008,-0.014,0.6875496,-1.2605076000000002,-0.286479,87.82873182,-3.11689152,-20.12228496,T01,0
0.7899999999999999,79,-0.065,-1.01,-0.014,0.8021411999999999,-1.2605076000000002,-0.286479,87.84019098,-3.11116194,-20.13374412,T01,0
0.7999999999999999,80,-0.065,-1.011,-0.017,0.5156622000000001,-1.0886202,-0.2291832,87.83446140000002,-3.12835068,-20.14520328,T01,0
0.8099999999999998,81,-0.063,-1.01,-0.019,0.4583664000000001,-0.9740286,-0.1145916,87.84019098,-3.12835068,-20.15666244,T01,0
0.8199999999999998,82,-0.062,-1.007,-0.017,0.6302538000000001,-0.7448454000000001,0.0572958,87.84592056,-3.12835068,-20.16239202,T01,0
0.8299999999999998,83,-0.061,-1.003,-0.016,0.9167328,-0.6302538000000001,0.1718874,87.85737972,-3.12835068,-20.168121600000006,T01,0
0.8399999999999999,84,-0.061,-1.001,-0.012,1.145916,-0.6875496,0.1145916,87.86883888,-3.13408026,-20.17385118,T01,0
0.8499999999999999,85,-0.058,-1.001,-0.011,1.145916,-0.7448454000000001,0.0,87.8917572,-3.12835068,-20.18531034,T01,0
0.8599999999999999,86,-0.06,-1.003,-0.011,0.9167328,-1.0313244,-0.1145916,87.90321636,-3.12835068,-20.1967695,T01,0
0.8699999999999999,87,-0.059,-1.005,-0.012,1.0313244,-1.0886202,-0.1145916,87.91467551999996,-3.12835068,-20.20822866,T01,0
0.8799999999999999,88,-0.062,-1.01,-0.01,1.0886202,-1.0886202,-0.2291832,87.92613467999998,-3.1226211000000004,-20.21968782,T01,0
0.8899999999999999,89,-0.065,-1.011,-0.013,0.9740286,-0.7448454000000001,-0.3437748,87.93759384,-3.1226211000000004,-20.2254174,T01,0
0.8999999999999999,90,-0.067,-1.011,-0.017,0.8021411999999999,-0.3437748,-0.4583664000000001,87.92040510000002,-3.14553942,-20.2254174,T01,0
0.91,91,-0.064,-1.009,-0.019,0.6302538000000001,-0.2291832,-0.5156622000000001,87.93186426,-3.1398098400000003,-20.23114698,T01,0
0.9199999999999998,92,-0.061,-1.006,-0.02,0.6875496,-0.2291832,-0.6302538000000001,87.93759384,-3.13408026,-20.23114698,T01,0
0.9299999999999998,93,-0.057,-1.003,-0.022,0.8021411999999999,-0.4010706,-0.4583664000000001,87.94332342,-3.12835068,-20.23687656,T01,0
0.9399999999999998,94,-0.056,-1.002,-0.019,0.9740286,-0.6302538000000001,-0.286479,87.95478258,-3.1226211000000004,-20.24260614,T01,0
0.9499999999999998,95,-0.056,-1.001,-0.015,1.2605076000000002,-0.9167328,-0.1145916,87.96624174,-3.11689152,-20.2540653,T01,0
0.96,96,-0.057,-1.002,-0.013,1.3178034,-1.145916,0.0,87.9777009,-3.11689152,-20.26552446,T01,0
0.97,97,-0.056,-1.005,-0.01,1.2032118,-1.3750992,0.1145916,87.99488964000004,-3.11689152,-20.276983620000006,T01,0
0.98,98,-0.059,-1.008,-0.01,1.145916,-1.432395,0.0572958,88.0063488,-3.1226211000000004,-20.28844278,T01,0
0.99,99,-0.061,-1.012,-0.011,1.0313244,-1.432395,-0.0572958,88.01780796,-3.11689152,-20.30563152,T01,0
1.0,100,-0.061,-1.011,-0.012,0.9167328,-1.2605076000000002,-0.1145916,88.02926712000001,-3.1226211000000004,-20.31709068,T01,0
1.0099999999999998,101,-0.061,-1.009,-0.011,0.8021411999999999,-1.2605076000000002,-0.1145916,88.03499670000002,-3.1226211000000004,-20.32854984,T01,0
1.0199999999999998,102,-0.063,-1.006,-0.009,0.6875496,-1.2605076000000002,-0.1718874,88.04645586000002,-3.1226211000000004,-20.34573858,T01,0
1.0299999999999998,103,-0.064,-1.005,-0.01,0.4583664000000001,-1.0886202,-0.1145916,88.05218544,-3.1226211000000004,-20.35146816,T01,0
1.0399999999999998,104,-0.063,-1.005,-0.013,0.4010706,-0.8021411999999999,-0.1145916,88.05218544,-3.11689152,-20.36292732,T01,0
1.0499999999999998,105,-0.06,-1.004,-0.01,0.572958,-0.6875496,-0.1145916,88.0636446,-3.1226211000000004,-20.3686569,T01,0
1.0599999999999998,106,-0.057,-1.005,-0.009,0.5156622000000001,-1.0313244,0.0572958,88.06937418,-3.1226211000000004,-20.38011606,T01,0
1.0699999999999998,107,-0.057,-1.005,-0.006,0.6302538000000001,-1.4896908000000002,0.1718874,88.08083334,-3.1226211000000004,-20.3973048,T01,0
1.0799999999999998,108,-0.059,-1.006,-0.005,0.4010706,-1.3178034,0.0572958,88.08656292,-3.1226211000000004,-20.40876396,T01,0
1.09,109,-0.058,-1.005,-0.004,0.5156622000000001,-0.9167328,0.0,88.0922925,-3.12835068,-20.42022312,T01,0
1.1,110,-0.059,-1.006,-0.006,0.572958,-1.145916,-0.0572958,88.10948124000002,-3.1226211000000004,-20.43168228,T01,0
1.11,111,-0.062,-1.007,-0.006,0.6302538000000001,-1.5469866,-0.1718874,88.11521081999999,-3.1226211000000004,-20.44887102,T01,0
1.12,112,-0.064,-1.008,-0.006,0.3437748,-1.6042823999999998,-0.1718874,88.12094040000002,-3.1226211000000004,-20.46033018,T01,0
1.13,113,-0.063,-1.006,-0.006,0.3437748,-1.432395,-0.1145916,88.12666998,-3.1226211000000004,-20.47751892,T01,0
1.14,114,-0.064,-1.008,-0.005,-0.1718874,-0.286479,0.0,88.12666998,-3.1226211000000004,-20.47751892,T01,0
1.15,115,-0.064,-1.011,-0.005,-0.6302538000000001,0.2291832,0.0572958,88.14385872,-3.14553942,-20.47751892,T01,0
1.16,116,-0.065,-1.012,-0.004,-0.9167328,0.6302538000000001,0.0,88.13239956,-3.14553942,-20.47178934,T01,0
1.17,117,-0.062,-1.011,0.0,-1.5469866,1.9480572,0.0,88.11521081999999,-3.14553942,-20.454600600000006,T01,0
1.18,118,-0.062,-1.013,0.003,-1.9480572,2.9220858,0.1718874,88.0922925,-3.14553942,-20.4259527,T01,0
1.1899999999999995,119,-0.06,-1.012,0.0,-2.8074942000000003,2.9793816000000004,0.286479,88.0636446,-3.151269,-20.3973048,T01,0
1.1999999999999995,120,-0.058,-1.007,-0.009,-3.2658606,2.4064236,0.3437748,88.02926712000001,-3.151269,-20.3686569,T01,0
1.2099999999999995,121,-0.054,-1.004,-0.013,-2.86479,1.6615782,0.286479,88.00061922,-3.15699858,-20.35719774,T01,0
1.2199999999999998,122,-0.053,-1.002,-0.015,-2.291832,1.2032118,0.2291832,87.97197132,-3.15699858,-20.34573858,T01,0
1.2299999999999998,123,-0.054,-1.002,-0.014,-1.8334656000000005,0.6875496,0.0,87.95478258,-3.15699858,-20.33427942,T01,0
1.2399999999999998,124,-0.054,-1.002,-0.014,-1.4896908000000002,0.3437748,-0.0572958,87.93759384,-3.15699858,-20.33427942,T01,0
1.2499999999999998,125,-0.057,-1.0,-0.014,-1.3178034,0.1718874,-0.1718874,87.92613467999998,-3.151269,-20.32854984,T01,0
1.2599999999999998,126,-0.059,-1.001,-0.011,-0.9167328,0.1718874,-0.2291832,87.91467551999996,-3.151269,-20.32854984,T01,0
1.2699999999999998,127,-0.06,-1.004,-0.011,-0.7448454000000001,0.1718874,-0.286479,87.90894594,-3.14553942,-20.32854984,T01,0
1.2799999999999998,128,-0.06,-1.005,-0.012,-0.6875496,0.3437748,-0.286479,87.89748678,-3.14553942,-20.32282026,T01,0
1.2899999999999998,129,-0.06,-1.005,-0.01,-0.4010706,0.4583664000000001,-0.0572958,87.89748678,-3.1398098400000003,-20.31709068,T01,0
1.2999999999999998,130,-0.061,-1.008,-0.004,-0.0572958,0.4010706,0.0572958,87.9777009,-3.151269,-20.32282026,T01,0
1.3099999999999998,131,-0.062,-1.012,-0.003,-0.2291832,0.6875496,0.1145916,87.9777009,-3.151269,-20.31709068,T01,0
1.3199999999999998,132,-0.059,-1.014,-0.0069999999999999,-0.572958,0.6875496,0.2291832,87.96624174,-3.151269,-20.3113611,T01,0
1.3299999999999998,133,-0.058,-1.011,-0.012,-0.8021411999999999,0.572958,0.1718874,87.96051216,-3.15699858,-20.30563152,T01,0
1.34,134,-0.058,-1.009,-0.012,-0.5156622000000001,0.572958,0.0,87.95478258,-3.15699858,-20.29417236,T01,0
1.35,135,-0.059,-1.004,-0.014,-0.4583664000000001,0.6302538000000001,-0.1145916,87.93759384,-3.15699858,-20.28844278,T01,0
1.36,136,-0.059,-0.999,-0.013,-0.3437748,0.6302538000000001,-0.3437748,87.93186426,-3.15699858,-20.2827132,T01,0
1.37,137,-0.061,-1.0,-0.013,-0.1145916,0.6875496,-0.4010706,87.93186426,-3.151269,-20.276983620000006,T01,0
1.38,138,-0.062,-1.002,-0.013,-0.2291832,0.8021411999999999,-0.3437748,87.92613467999998,-3.14553942,-20.26552446,T01,0
1.39,139,-0.062,-1.005,-0.01,-0.0572958,0.8021411999999999,-0.2291832,87.92613467999998,-3.14553942,-20.25979488,T01,0
1.3999999999999997,140,-0.06,-1.01,-0.008,-0.0572958,0.6875496,-0.0572958,87.96051216,-3.14553942,-20.2540653,T01,0
1.4099999999999997,141,-0.057,-1.011,-0.011,-0.2291832,0.5156622000000001,0.0,87.95478258,-3.14553942,-20.2540653,T01,0
1.4199999999999997,142,-0.057,-1.01,-0.012,-0.3437748,0.4010706,0.1145916,87.94905299999998,-3.14553942,-20.24833572,T01,0
1.4299999999999995,143,-0.059,-1.009,-0.015,-0.572958,0.5156622000000001,0.0,87.94332342,-3.14553942,-20.24260614,T01,0
1.4399999999999995,144,-0.061,-1.007,-0.018,-0.572958,0.7448454000000001,-0.2291832,87.93759384,-3.14553942,-20.23687656,T01,0
1.4499999999999995,145,-0.063,-1.003,-0.016,-0.572958,0.9167328,-0.3437748,87.92613467999998,-3.151269,-20.2254174,T01,0
1.4599999999999995,146,-0.062,-0.998,-0.014,-0.286479,1.0313244,-0.4010706,87.92040510000002,-3.14553942,-20.21395824,T01,0
1.4699999999999998,147,-0.061,-0.998,-0.011,0.0,1.3178034,-0.4010706,87.92040510000002,-3.14553942,-20.20249908,T01,0
1.4799999999999998,148,-0.06,-1.001,-0.0069999999999999,0.286479,1.432395,-0.2291832,87.92613467999998,-3.1398098400000003,-20.18531034,T01,0
1.4899999999999998,149,-0.061,-1.004,-0.004,0.286479,1.7188740000000002,-0.2291832,87.92613467999998,-3.1398098400000003,-20.168121600000006,T01,0
1.4999999999999998,150,-0.062,-1.006,0.0,0.1718874,2.3491278,-0.1718874,87.95478258,-3.14553942,-20.15093286,T01,0
1.5099999999999998,151,-0.063,-1.012,0.003,0.0,2.9793816000000004,-0.0572958,87.95478258,-3.1398098400000003,-20.11655538,T01,0
1.5199999999999998,152,-0.062,-1.015,0.0,-0.4583664000000001,3.0939732,-0.1145916,87.94905299999998,-3.1398098400000003,-20.08790748,T01,0
1.5299999999999998,153,-0.059,-1.015,-0.003,-0.6875496,2.86479,-0.1718874,87.93759384,-3.1398098400000003,-20.05925958,T01,0
1.5399999999999998,154,-0.056,-1.014,-0.005,-0.6875496,2.578311,-0.1145916,87.92613467999998,-3.13408026,-20.03634126,T01,0
1.5499999999999998,155,-0.056,-1.011,-0.008,-0.6875496,2.3491278,-0.1718874,87.92613467999998,-3.13408026,-20.01342294,T01,0
1.5599999999999998,156,-0.057,-1.009,-0.009,-0.8021411999999999,2.0626488000000003,-0.286479,87.91467551999996,-3.12835068,-19.99050462,T01,0
1.5699999999999998,157,-0.057,-1.007,-0.013,-1.0313244,1.7188740000000002,-0.572958,87.90321636,-3.1226211000000004,-19.97331588,T01,0
1.5799999999999998,158,-0.057,-1.002,-0.015,-1.0886202,1.6615782,-0.572958,87.8917572,-3.11689152,-19.95612714,T01,0
1.59,159,-0.056,-1.0,-0.012,-0.7448454000000001,1.8334656000000005,-0.4583664000000001,87.88602762000002,-3.11116194,-19.9389384,T01,0
1.6,160,-0.053,-1.002,-0.014,-0.572958,1.5469866,-0.2291832,87.87456846,-3.0939732,-19.92174966,T01,0
1.6099999999999997,161,-0.051,-1.002,-0.018,-0.5156622000000001,0.9740286,-0.1145916,87.86883888,-3.0939732,-19.91602008,T01,0
1.6199999999999997,162,-0.054,-1.002,-0.013,-0.4010706,0.4583664000000001,-0.0572958,87.8631093,-3.08824362,-19.9102905,T01,0
1.6299999999999997,163,-0.057,-1.002,-0.014,-0.4583664000000001,0.286479,0.0,87.85737972,-3.08824362,-19.90456092,T01,0
1.6399999999999997,164,-0.059,-1.005,-0.01,-0.2291832,0.3437748,0.0,87.85165014,-3.08824362,-19.90456092,T01,0
1.6499999999999997,165,-0.06,-1.009,-0.011,-0.3437748,0.4583664000000001,0.0,87.8631093,-3.0939732,-19.89883134,T01,0
1.6599999999999997,166,-0.061,-1.011,-0.01,-0.5156622000000001,0.572958,-0.1718874,87.85737972,-3.0939732,-19.89310176,T01,0
1.6699999999999997,167,-0.059,-1.01,-0.01,-0.5156622000000001,0.8021411999999999,-0.2291832,87.85165014,-3.08824362,-19.88737218,T01,0
1.6799999999999995,168,-0.058,-1.011,-0.009,-0.5156622000000001,1.2032118,-0.2291832,87.84592056,-3.08824362,-19.87018344,T01,0
1.6899999999999995,169,-0.056,-1.009,-0.004,-0.4010706,1.3178034,-0.1718874,87.84019098,-3.08824362,-19.85872428,T01,0
1.6999999999999995,170,-0.056,-1.005,-0.001,-0.4010706,1.2032118,0.0,87.87456846,-3.07678446,-19.8529947,T01,0
1.7099999999999995,171,-0.053,-1.004,-0.002,-0.572958,1.0313244,0.0,87.8631093,-3.07678446,-19.84153554,T01,0
1.7199999999999998,172,-0.052,-1.007,-0.003,-0.8021411999999999,0.8021411999999999,0.0,87.85737972,-3.07678446,-19.83007638,T01,0
1.7299999999999998,173,-0.05,-1.011,-0.006,-1.145916,0.3437748,0.0572958,87.84592056,-3.07678446,-19.83007638,T01,0
1.7399999999999998,174,-0.051,-1.012,-0.013,-1.4896908000000002,0.1718874,0.0572958,87.82873182,-3.07678446,-19.8243468,T01,0
1.7499999999999998,175,-0.054,-1.007,-0.017,-1.3750992,0.0,0.0,87.8058135,-3.07105488,-19.8243468,T01,0
1.7599999999999998,176,-0.057,-1.005,-0.016,-0.9167328,0.0,0.0,87.80008391999998,-3.07105488,-19.8243468,T01,0
1.7699999999999998,177,-0.056,-1.003,-0.013,-0.5156622000000001,0.0,0.0,87.79435434000001,-3.07105488,-19.8243468,T01,0
1.7799999999999998,178,-0.058,-1.002,-0.011,-0.286479,0.1718874,0.0,87.78862475999998,-3.07105488,-19.8243468,T01,0
1.7899999999999998,179,-0.057,-1.002,-0.011,-0.286479,0.1718874,-0.0572958,87.78862475999998,-3.0653253000000005,-19.8243468,T01,0
1.7999999999999998,180,-0.058,-1.003,-0.011,-0.0572958,0.4010706,-0.1718874,87.81154308,-3.07105488,-19.81861722,T01,0
1.81,181,-0.059,-1.004,-0.01,0.0,0.5156622000000001,-0.286479,87.81154308,-3.0653253000000005,-19.81861722,T01,0
1.82,182,-0.057,-1.007,-0.01,0.286479,0.6302538000000001,-0.3437748,87.81727266,-3.0653253000000005,-19.80715806,T01,0
1.83,183,-0.057,-1.008,-0.01,0.4583664000000001,0.7448454000000001,-0.3437748,87.81727266,-3.05959572,-19.80142848,T01,0
1.84,184,-0.056,-1.008,-0.008,0.572958,0.8594370000000001,-0.4583664000000001,87.82300224,-3.05386614,-19.7956989,T01,0
1.85,185,-0.058,-1.01,-0.008,0.5156622000000001,1.0313244,-0.572958,87.84592056,-3.04813656,-19.78423974,T01,0
1.86,186,-0.057,-1.009,-0.0069999999999999,0.286479,1.3750992,-0.7448454000000001,87.84592056,-3.0366774000000003,-19.77278058,T01,0
1.87,187,-0.057,-1.009,-0.004,0.0572958,1.7761698,-0.6875496,87.84592056,-3.03094782,-19.75559184,T01,0
1.88,188,-0.057,-1.01,-0.004,-0.3437748,2.1199446,-0.6302538000000001,87.84019098,-3.02521824,-19.73267352,T01,0
1.89,189,-0.058,-1.009,-0.008,-0.8594370000000001,2.6929026,-0.572958,87.82873182,-3.01948866,-19.704025620000003,T01,0
1.9,190,-0.058,-1.008,-0.013,-1.0313244,2.86479,-0.6302538000000001,87.81727266,-3.0137590800000003,-19.67537772,T01,0
1.91,191,-0.056,-1.006,-0.013,-0.9740286,2.8074942000000003,-0.7448454000000001,87.8058135,-3.00229992,-19.6524594,T01,0
1.92,192,-0.054,-1.006,-0.015,-0.9167328,2.4637194,-0.8021411999999999,87.79435434000001,-2.9965703400000003,-19.6238115,T01,0
1.93,193,-0.053,-1.006,-0.012,-0.9167328,2.4064236,-0.9167328,87.78289518,-2.98511118,-19.60089318,T01,0
1.94,194,-0.052,-1.008,-0.009,-1.0886202,2.5210152000000003,-0.8594370000000001,87.77143602000002,-2.9793816000000004,-19.57797486,T01,0
1.95,195,-0.052,-1.01,-0.006,-1.3750992,2.578311,-0.6875496,87.76570644,-2.96792244,-19.55505654,T01,0
1.96,196,-0.053,-1.01,-0.008,-1.4896908000000002,2.4637194,-0.6302538000000001,87.74851770000002,-2.9564632800000004,-19.52640864,T01,0
1.97,197,-0.054,-1.01,-0.012,-1.6042823999999998,2.2345362,-0.5156622000000001,87.73132896,-2.9507337,-19.5092199,T01,0
1.98,198,-0.054,-1.007,-0.011,-1.432395,1.8334656000000005,-0.4010706,87.71414021999998,-2.9507337,-19.48630158,T01,0
1.99,199,-0.055,-1.008,-0.011,-1.145916,1.4896908000000002,-0.4010706,87.70268106,-2.94500412,-19.47484242,T01,0
2.0,200,-0.052,-1.008,-0.014,-1.2032118,1.3750992,-0.4583664000000001,87.69122189999999,-2.93354496,-19.46338326,T01,0
2.01,201,-0.05,-1.006,-0.015,-1.145916,1.2605076000000002,-0.4583664000000001,87.67976274,-2.92781538,-19.44619452,T01,0
2.02,202,-0.052,-1.006,-0.015,-0.9740286,1.3750992,-0.4583664000000001,87.66830358,-2.9220858,-19.43473536,T01,0
2.03,203,-0.052,-1.006,-0.013,-0.7448454000000001,1.145916,-0.4583664000000001,87.65684442,-2.91635622,-19.4232762,T01,0
2.04,204,-0.055,-1.006,-0.012,-0.7448454000000001,0.9740286,-0.5156622000000001,87.65111484,-2.91062664,-19.41181704,T01,0
2.0499999999999994,205,-0.057,-1.007,-0.011,-0.6875496,1.0313244,-0.5156622000000001,87.66257399999998,-2.91062664,-19.40608746,T01,0
2.06,206,-0.056,-1.009,-0.0069999999999999,-0.5156622000000001,0.8594370000000001,-0.4010706,87.65111484,-2.90489706,-19.3946283,T01,0
2.0699999999999994,207,-0.054,-1.006,-0.008,-0.6875496,0.8594370000000001,-0.4010706,87.64538526,-2.90489706,-19.38889872,T01,0
2.08,208,-0.052,-1.005,-0.003,-0.7448454000000001,0.6875496,-0.286479,87.63965568,-2.89916748,-19.377439560000006,T01,0
2.0899999999999994,209,-0.053,-1.009,0.0,-0.8594370000000001,0.8021411999999999,-0.2291832,87.62819652,-2.89916748,-19.37170998,T01,0
2.1,210,-0.053,-1.011,-0.003,-1.6615782,1.6042823999999998,-0.1145916,87.62246694,-2.8934379,-19.35452124,T01,0
2.1099999999999994,211,-0.054,-1.009,-0.01,-1.8334656000000005,1.8907614,0.0572958,87.6052782,-2.8934379,-19.3373325,T01,0
2.12,212,-0.054,-1.007,-0.012,-1.7761698,1.2605076000000002,0.0,87.58235988,-2.8934379,-19.32587334,T01,0
2.1299999999999994,213,-0.054,-1.006,-0.01,-1.6042823999999998,1.0313244,0.0572958,87.56517113999998,-2.8934379,-19.31441418,T01,0
2.14,214,-0.053,-1.003,-0.013,-1.7188740000000002,1.0313244,0.0,87.54798240000002,-2.8934379,-19.30295502,T01,0
2.1499999999999995,215,-0.054,-1.003,-0.011,-1.4896908000000002,1.145916,0.0572958,87.54798240000002,-2.8934379,-19.29722544,T01,0
2.1599999999999997,216,-0.057,-1.005,-0.011,-1.3750992,1.2032118,0.0572958,87.53079366,-2.89916748,-19.280036700000004,T01,0
2.1699999999999995,217,-0.059,-1.006,-0.008,-1.2032118,1.0886202,0.0,87.5193345,-2.89916748,-19.27430712,T01,0
2.1799999999999997,218,-0.061,-1.009,-0.004,-0.9167328,1.6042823999999998,0.0,87.50787534,-2.89916748,-19.25711838,T01,0
2.1899999999999995,219,-0.06,-1.013,0.001,-0.9740286,2.3491278,0.0572958,87.49641618000004,-2.89916748,-19.23420006,T01,0
2.1999999999999997,220,-0.058,-1.015,0.004,-1.3178034,2.9793816000000004,0.1718874,87.50214575999998,-2.89916748,-19.20555216,T01,0
2.2099999999999995,221,-0.053,-1.013,0.001,-2.1199446,3.380452200000001,0.3437748,87.47922744,-2.90489706,-19.17117468,T01,0
2.2199999999999998,222,-0.049,-1.009,-0.002,-2.4637194,3.3231564,0.3437748,87.45057954,-2.90489706,-19.1367972,T01,0
2.2299999999999995,223,-0.047,-1.006,-0.0069999999999999,-2.578311,3.0366774,0.4010706,87.42193164,-2.91062664,-19.1081493,T01,0
2.2399999999999998,224,-0.045,-1.006,-0.01,-2.5210152000000003,2.6356068,0.5156622000000001,87.39328374,-2.91635622,-19.0795014,T01,0
2.25,225,-0.045,-1.004,-0.011,-2.2345362,2.291832,0.5156622000000001,87.38182458,-2.91062664,-19.06231266,T01,0
2.26,226,-0.048,-1.002,-0.012,-1.6042823999999998,1.6615782,0.5156622000000001,87.36463583999998,-2.91635622,-19.04512392,T01,0
2.27,227,-0.05,-1.001,-0.012,-1.3750992,1.0313244,0.286479,87.3474471,-2.9220858,-19.03366476,T01,0
2.28,228,-0.051,-0.998,-0.01,-1.432395,0.5156622000000001,0.1145916,87.33025836,-2.9220858,-19.02793518,T01,0
2.29,229,-0.05,-0.998,-0.009,-1.2605076000000002,0.0572958,-0.0572958,87.31879920000002,-2.9220858,-19.02793518,T01,0
2.2999999999999994,230,-0.051,-1.002,-0.0069999999999999,-0.9740286,0.0,-0.0572958,87.36463583999998,-2.90489706,-19.03366476,T01,0
2.31,231,-0.051,-1.006,-0.008,-0.9740286,0.1145916,0.0,87.35890626,-2.90489706,-19.03366476,T01,0
2.3199999999999994,232,-0.052,-1.008,-0.006,-0.7448454000000001,0.286479,0.2291832,87.3474471,-2.91062664,-19.02793518,T01,0
2.33,233,-0.055,-1.01,-0.0069999999999999,-0.6875496,0.6875496,0.286479,87.34171752,-2.91062664,-19.0222056,T01,0
2.3399999999999994,234,-0.056,-1.007,-0.008,-0.4583664000000001,0.9740286,0.3437748,87.33598794000002,-2.91635622,-19.01074644,T01,0
2.35,235,-0.057,-1.004,-0.0069999999999999,-0.1718874,0.9167328,0.3437748,87.38755416000002,-2.9220858,-19.00501686,T01,0
2.3599999999999994,236,-0.055,-1.002,-0.008,0.0,0.8594370000000001,0.2291832,87.38755416000002,-2.92781538,-18.99928728,T01,0
2.369999999999999,237,-0.054,-1.006,-0.005,0.0,0.8021411999999999,0.0572958,87.38755416000002,-2.92781538,-18.98782812,T01,0
2.3799999999999994,238,-0.053,-1.009,0.0,-0.1718874,1.3750992,0.0572958,87.38182458,-2.92781538,-18.97636896,T01,0
2.3899999999999992,239,-0.052,-1.014,0.002,-1.2605076000000002,2.3491278,0.286479,87.37036542000001,-2.92781538,-18.95345064,T01,0
2.3999999999999995,240,-0.053,-1.014,-0.004,-2.1199446,2.9220858,0.4583664000000001,87.35890626,-2.93354496,-18.92480274,T01,0
2.4099999999999997,241,-0.056,-1.013,-0.003,-2.7501984,3.2085648,0.3437748,87.33025836,-2.93927454,-18.89042526,T01,0
2.4199999999999995,242,-0.051,-1.011,-0.009,-3.8388186,3.8388186,0.3437748,87.28442172,-2.93927454,-18.85604778,T01,0
2.4299999999999997,243,-0.048,-1.008,-0.016,-3.8388186,3.8388186,0.1718874,87.24431466,-2.94500412,-18.81594072,T01,0
2.4399999999999995,244,-0.047,-1.005,-0.021,-3.4377480000000005,3.4950437999999995,0.1145916,87.20993718,-2.94500412,-18.78156324,T01,0
2.4499999999999997,245,-0.044,-1.002,-0.022,-2.578311,2.9220858,0.0,87.18128928,-2.93354496,-18.75291534,T01,0
2.4599999999999995,246,-0.045,-1.001,-0.018,-1.7761698,2.291832,-0.0572958,87.16410053999998,-2.92781538,-18.72999702000001,T01,0
2.4699999999999998,247,-0.045,-1.002,-0.016,-1.0313244,1.7188740000000002,-0.0572958,87.15264138,-2.92781538,-18.71280828,T01,0
2.4799999999999995,248,-0.043,-1.003,-0.014,-0.7448454000000001,1.0313244,-0.1145916,87.14118221999998,-2.92781538,-18.70134912,T01,0
2.4899999999999998,249,-0.044,-1.007,-0.012,-0.7448454000000001,0.6302538000000001,-0.1718874,87.13545264000004,-2.92781538,-18.69561954,T01,0
2.5,250,-0.046,-1.01,-0.016,-0.8021411999999999,0.1718874,-0.1718874,87.15837096,-2.89916748,-18.70134912,T01,0
2.51,251,-0.047,-1.009,-0.019,-0.6875496,0.1718874,-0.1718874,87.15264138,-2.89916748,-18.69561954,T01,0
2.52,252,-0.048,-1.007,-0.018,-0.5156622000000001,0.1145916,-0.2291832,87.14691180000001,-2.8934379,-18.69561954,T01,0
2.53,253,-0.049,-1.005,-0.016,-0.2291832,0.2291832,-0.1145916,87.14118221999998,-2.8934379,-18.69561954,T01,0
2.54,254,-0.049,-1.004,-0.015,-0.0572958,0.2291832,-0.0572958,87.14118221999998,-2.8934379,-18.68988996,T01,0
2.5499999999999994,255,-0.051,-1.003,-0.016,0.0572958,0.2291832,0.0,87.24431466,-2.86479,-18.69561954,T01,0
2.56,256,-0.053,-1.005,-0.014,0.2291832,0.1718874,0.0,87.25004424,-2.86479,-18.69561954,T01,0
2.5699999999999994,257,-0.055,-1.007,-0.012,0.4010706,0.1145916,0.0,87.25004424,-2.86479,-18.69561954,T01,0
2.579999999999999,258,-0.056,-1.009,-0.013,0.4583664000000001,0.0,-0.2291832,87.25577381999999,-2.86479,-18.69561954,T01,0
2.5899999999999994,259,-0.056,-1.008,-0.013,0.4583664000000001,0.0,-0.5156622000000001,87.26150340000002,-2.85906042,-18.69561954,T01,0
2.599999999999999,260,-0.056,-1.008,-0.01,0.5156622000000001,0.1145916,-0.572958,87.31306962,-2.85333084,-18.69561954,T01,0
2.6099999999999994,261,-0.057,-1.008,-0.013,0.4010706,0.6302538000000001,-0.5156622000000001,87.31879920000002,-2.84760126,-18.68988996,T01,0
2.619999999999999,262,-0.055,-1.009,-0.017,0.2291832,0.8021411999999999,-0.4583664000000001,87.31879920000002,-2.84187168,-18.6784308,T01,0
2.6299999999999994,263,-0.055,-1.008,-0.019,0.286479,0.572958,-0.4010706,87.31879920000002,-2.8361421,-18.67270122,T01,0
2.6399999999999992,264,-0.055,-1.004,-0.012,0.286479,0.6302538000000001,-0.286479,87.32452878000002,-2.8361421,-18.66697164,T01,0
2.6499999999999995,265,-0.052,-1.005,-0.014,0.1718874,0.9167328,-0.1718874,87.35317668,-2.82468294,-18.66124206,T01,0
2.6599999999999997,266,-0.051,-1.004,-0.012,0.3437748,0.9167328,-0.1145916,87.35890626,-2.82468294,-18.65551248,T01,0
2.6699999999999995,267,-0.052,-1.008,-0.008,0.4010706,0.4583664000000001,-0.1718874,87.36463583999998,-2.82468294,-18.6497829,T01,0
2.6799999999999997,268,-0.055,-1.013,-0.009,0.1145916,0.6302538000000001,-0.286479,87.36463583999998,-2.81895336,-18.64405332,T01,0
2.6899999999999995,269,-0.058,-1.011,-0.011,-0.2291832,1.2605076000000002,-0.3437748,87.35890626,-2.81322378,-18.62686458,T01,0
2.6999999999999997,270,-0.059,-1.009,-0.011,-0.286479,2.0053530000000004,-0.286479,87.37609499999998,-2.81895336,-18.60967584,T01,0
2.7099999999999995,271,-0.055,-1.007,-0.012,0.0,2.1772404,-0.1145916,87.37036542000001,-2.81895336,-18.58675752,T01,0
2.7199999999999998,272,-0.05,-1.004,-0.01,0.286479,1.432395,-0.0572958,87.37609499999998,-2.81322378,-18.57529836,T01,0
2.7299999999999995,273,-0.046,-1.002,-0.0069999999999999,0.4583664000000001,0.6302538000000001,-0.0572958,87.38182458,-2.81322378,-18.56956878,T01,0
2.7399999999999998,274,-0.045,-1.005,0.0,0.4583664000000001,0.2291832,0.0,87.38182458,-2.81322378,-18.5638392,T01,0
2.75,275,-0.046,-1.007,0.0,0.1718874,0.0,0.1718874,87.68549232000002,-2.73300966,-18.5924871,T01,0
2.76,276,-0.05,-1.009,0.0,-0.0572958,-0.0572958,0.286479,87.67976274,-2.73873924,-18.5924871,T01,0
2.77,277,-0.054,-1.01,-0.002,-0.1718874,0.1718874,0.2291832,87.67976274,-2.73873924,-18.58675752,T01,0
2.78,278,-0.055,-1.009,-0.008,-0.3437748,0.2291832,0.1718874,87.67403316,-2.73873924,-18.58675752,T01,0
2.789999999999999,279,-0.057,-1.007,-0.0069999999999999,-0.3437748,0.4010706,0.0572958,87.67403316,-2.74446882,-18.58102794,T01,0
2.7999999999999994,280,-0.055,-1.004,-0.009,-0.4583664000000001,1.0313244,0.1145916,87.67976274,-2.7501984,-18.56956878,T01,0
2.809999999999999,281,-0.056,-1.002,-0.006,0.0,1.145916,0.3437748,87.67976274,-2.75592798,-18.55810962,T01,0
2.8199999999999994,282,-0.054,-1.004,0.0,0.4583664000000001,0.6875496,0.572958,87.68549232000002,-2.76165756,-18.55238004,T01,0
2.829999999999999,283,-0.055,-1.007,0.002,0.6875496,0.6302538000000001,0.8021411999999999,87.69122189999999,-2.76738714,-18.54665046,T01,0
2.8399999999999994,284,-0.056,-1.009,0.001,0.572958,0.572958,0.8021411999999999,87.69695148,-2.7788463,-18.54092088,T01,0
2.849999999999999,285,-0.057,-1.009,0.001,0.5156622000000001,0.6302538000000001,0.6875496,87.74278812,-2.79030546,-18.5351913,T01,0
2.8599999999999994,286,-0.058,-1.009,0.001,0.286479,1.0313244,0.6302538000000001,87.74278812,-2.79603504,-18.52373214,T01,0
2.869999999999999,287,-0.059,-1.008,-0.001,-0.0572958,1.432395,0.5156622000000001,87.74278812,-2.80176462,-18.5065434,T01,0
2.8799999999999994,288,-0.061,-1.005,0.001,-0.2291832,1.9480572,0.572958,87.74278812,-2.8074942000000003,-18.48935466,T01,0
2.8899999999999992,289,-0.06,-1.004,0.003,-0.4583664000000001,2.4064236,0.572958,87.73132896,-2.81322378,-18.46643634,T01,0
2.8999999999999995,290,-0.057,-1.007,0.002,-0.7448454000000001,2.578311,0.572958,87.73705853999998,-2.82468294,-18.43778844,T01,0
2.9099999999999997,291,-0.053,-1.007,-0.001,-1.0313244,2.4637194,0.5156622000000001,87.72559937999998,-2.83041252,-18.41487012,T01,0
2.9199999999999995,292,-0.052,-1.004,0.0,-0.9167328,2.2345362,0.4010706,87.71414021999998,-2.83041252,-18.3919518,T01,0
2.9299999999999997,293,-0.052,-1.006,0.0,-0.6875496,2.1199446,0.3437748,87.70841064,-2.8361421,-18.36903348,T01,0
2.9399999999999995,294,-0.053,-1.006,-0.001,-0.7448454000000001,2.1199446,0.3437748,87.69695148,-2.84187168,-18.35184474,T01,0
2.9499999999999997,295,-0.052,-1.006,-0.004,-0.572958,2.0053530000000004,0.4583664000000001,87.70268106,-2.84187168,-18.32892642,T01,0
2.9599999999999995,296,-0.052,-1.006,-0.006,-0.5156622000000001,2.1199446,0.5156622000000001,87.69695148,-2.84760126,-18.3060081,T01,0
2.9699999999999998,297,-0.055,-1.005,0.0,-0.5156622000000001,2.3491278,0.7448454000000001,87.69122189999999,-2.85333084,-18.28308978,T01,0
2.9799999999999995,298,-0.055,-1.01,0.014,-1.2605076000000002,3.380452200000001,0.6875496,87.67403316,-2.85906042,-18.2487123,T01,0
2.9899999999999998,299,-0.054,-1.012,0.011,-2.8074942000000003,4.5263682,0.7448454000000001,87.64538526,-2.87051958,-18.20860524,T01,0
2.999999999999999,300,-0.055,-1.011,0.001,-3.7815228,4.6409598,0.7448454000000001,87.61100778,-2.87624916,-18.162768600000003,T01,0
3.01,301,-0.055,-1.009,-0.009,-3.9534102,4.1252976000000015,0.572958,87.56517113999998,-2.88197874,-18.11693196,T01,0
3.019999999999999,302,-0.05,-1.009,-0.015,-3.3231564,3.4950437999999995,0.5156622000000001,87.53079366,-2.88770832,-18.08255448,T01,0
3.03,303,-0.048,-1.01,-0.013,-2.578311,2.8074942000000003,0.4583664000000001,87.50214575999998,-2.8934379,-18.05390658,T01,0
3.039999999999999,304,-0.048,-1.007,-0.01,-2.1199446,2.291832,0.4583664000000001,87.47922744,-2.8934379,-18.03671784,T01,0
3.0499999999999994,305,-0.047,-1.006,-0.011,-2.1199446,1.8907614,0.3437748,87.46203870000002,-2.8934379,-18.01379952,T01,0
3.059999999999999,306,-0.049,-1.004,-0.014,-2.2345362,1.5469866,0.2291832,87.43912037999998,-2.8934379,-18.002340359999994,T01,0
3.0699999999999994,307,-0.049,-1.002,-0.012,-2.0626488000000003,1.0313244,0.1145916,87.41620206,-2.8934379,-17.9908812,T01,0
3.079999999999999,308,-0.053,-1.005,-0.0069999999999999,-1.8334656000000005,0.8021411999999999,0.0,87.39901332,-2.89916748,-17.98515162,T01,0
3.0899999999999994,309,-0.054,-1.007,-0.0069999999999999,-2.1199446,1.0313244,0.0,87.37609499999998,-2.89916748,-17.973692460000006,T01,0
3.099999999999999,310,-0.055,-1.009,-0.009,-2.7501984,1.432395,0.0,87.35890626,-2.89916748,-17.95650372,T01,0
3.1099999999999994,311,-0.054,-1.009,-0.014,-3.151269,1.8907614,0.1145916,87.32452878000002,-2.89916748,-17.93931498,T01,0
3.119999999999999,312,-0.051,-1.007,-0.017,-2.86479,1.7761698,0.1718874,87.29588088,-2.89916748,-17.92212624,T01,0
3.1299999999999994,313,-0.051,-1.007,-0.021,-2.4637194,0.8021411999999999,0.1145916,87.26723297999996,-2.89916748,-17.916396659999997,T01,0
3.1399999999999992,314,-0.05,-1.006,-0.019,-2.1772404,0.3437748,0.286479,87.24431466,-2.90489706,-17.91066708,T01,0
3.1499999999999995,315,-0.049,-1.002,-0.019,-2.1199446,0.5156622000000001,0.3437748,87.2328555,-2.90489706,-17.9049375,T01,0
3.1599999999999997,316,-0.052,-1.0,-0.018,-1.7188740000000002,0.4010706,0.2291832,87.20993718,-2.90489706,-17.9049375,T01,0
3.1699999999999995,317,-0.056,-1.005,-0.014,-1.2032118,0.1718874,0.1718874,87.19847802,-2.91062664,-17.899207920000006,T01,0
3.1799999999999997,318,-0.058,-1.01,-0.011,-1.2032118,0.0,0.0,87.18701886,-2.91062664,-17.899207920000006,T01,0
3.1899999999999995,319,-0.06,-1.011,-0.012,-1.2032118,0.3437748,0.0,87.17555970000002,-2.91062664,-17.899207920000006,T01,0
3.1999999999999997,320,-0.06,-1.01,-0.012,-1.2605076000000002,0.7448454000000001,0.0572958,87.18128928,-2.91635622,-17.88774876,T01,0
3.209999999999999,321,-0.058,-1.009,-0.014,-1.0886202,1.0886202,0.1718874,87.16983012,-2.91635622,-17.8762896,T01,0
3.2199999999999998,322,-0.055,-1.007,-0.017,-0.9167328,0.8594370000000001,0.1718874,87.15837096,-2.9220858,-17.870560020000006,T01,0
3.229999999999999,323,-0.053,-1.004,-0.012,-0.7448454000000001,0.2291832,0.1718874,87.15264138,-2.9220858,-17.870560020000006,T01,0
3.2399999999999998,324,-0.052,-1.007,-0.008,-0.8594370000000001,0.1145916,0.1718874,87.14118221999998,-2.9220858,-17.86483044,T01,0
3.249999999999999,325,-0.054,-1.01,-0.011,-1.2032118,0.286479,0.286479,87.15264138,-2.92781538,-17.86483044,T01,0
3.26,326,-0.059,-1.01,-0.015,-1.6042823999999998,0.4583664000000001,0.3437748,87.14118221999998,-2.92781538,-17.85910086,T01,0
3.269999999999999,327,-0.06,-1.005,-0.016,-1.7761698,0.9167328,0.2291832,87.1182639,-2.93354496,-17.85337128,T01,0
3.28,328,-0.059,-0.999,-0.018,-1.4896908000000002,1.2032118,0.1718874,87.10107516000002,-2.93354496,-17.83618254,T01,0
3.289999999999999,329,-0.058,-0.997,-0.017,-1.0313244,1.2032118,0.1145916,87.089616,-2.93354496,-17.824723380000005,T01,0
3.2999999999999994,330,-0.056,-0.998,-0.014,-0.6302538000000001,0.9167328,0.0572958,87.1182639,-2.93354496,-17.818993799999994,T01,0
3.309999999999999,331,-0.053,-1.004,-0.011,-0.3437748,0.3437748,0.1718874,87.11253432000002,-2.93354496,-17.81326422,T01,0
3.3199999999999994,332,-0.054,-1.009,-0.012,-0.4010706,-0.1145916,0.286479,87.11253432000002,-2.93927454,-17.818993799999994,T01,0
3.329999999999999,333,-0.056,-1.011,-0.014,-0.4010706,-0.1718874,0.3437748,87.10680474,-2.94500412,-17.818993799999994,T01,0
3.3399999999999994,334,-0.059,-1.01,-0.013,-0.2291832,0.0,0.2291832,87.10107516000002,-2.94500412,-17.818993799999994,T01,0
3.349999999999999,335,-0.062,-1.008,-0.011,0.0572958,0.2291832,0.1718874,87.16983012,-2.9793816000000004,-17.81326422,T01,0
3.3599999999999994,336,-0.065,-1.005,-0.008,0.286479,0.4010706,0.0,87.16983012,-2.9793816000000004,-17.81326422,T01,0
3.369999999999999,337,-0.065,-1.005,-0.008,0.2291832,0.4010706,0.0,87.17555970000002,-2.9793816000000004,-17.80753464,T01,0
3.3799999999999994,338,-0.06,-1.005,-0.01,0.0572958,0.3437748,0.0,87.17555970000002,-2.9793816000000004,-17.80180506,T01,0
3.3899999999999992,339,-0.057,-1.005,-0.01,0.0572958,0.1718874,0.0,87.17555970000002,-2.9793816000000004,-17.80180506,T01,0
3.3999999999999995,340,-0.057,-1.006,-0.009,0.1145916,0.0,0.1145916,87.27296256,-2.9965703400000003,-17.80180506,T01,0
3.4099999999999997,341,-0.058,-1.008,-0.009,0.1718874,0.0,0.1145916,87.27296256,-2.9965703400000003,-17.80753464,T01,0
3.4199999999999995,342,-0.059,-1.008,-0.011,0.0,0.0,0.0,87.27296256,-2.9965703400000003,-17.80180506,T01,0
3.4299999999999997,343,-0.061,-1.01,-0.013,0.0,0.1145916,-0.0572958,87.27296256,-2.9965703400000003,-17.80180506,T01,0
3.439999999999999,344,-0.063,-1.007,-0.013,0.0,0.1718874,-0.1145916,87.27296256,-2.99084076,-17.80180506,T01,0
3.4499999999999997,345,-0.063,-1.007,-0.008,0.286479,0.0,-0.1718874,87.38182458,-3.03094782,-17.80180506,T01,0
3.459999999999999,346,-0.063,-1.008,-0.011,0.1145916,0.286479,-0.1718874,87.38182458,-3.03094782,-17.80180506,T01,0
3.4699999999999998,347,-0.062,-1.004,-0.013,-0.1145916,0.6302538000000001,-0.2291832,87.38182458,-3.02521824,-17.7903459,T01,0
3.479999999999999,348,-0.059,-1.002,-0.011,0.0,1.0313244,-0.1718874,87.37609499999998,-3.02521824,-17.78461632,T01,0
3.4899999999999998,349,-0.057,-1.003,-0.009,0.0,1.2032118,-0.1718874,87.37609499999998,-3.01948866,-17.76742758,T01,0
3.499999999999999,350,-0.057,-1.006,-0.008,-0.2291832,1.2605076000000002,-0.1145916,87.4047429,-3.02521824,-17.761698000000006,T01,0
3.51,351,-0.057,-1.009,-0.01,-0.5156622000000001,1.2605076000000002,-0.1145916,87.39901332,-3.01948866,-17.74450926,T01,0
3.519999999999999,352,-0.053,-1.011,-0.012,-0.8021411999999999,1.145916,0.0572958,87.38755416000002,-3.01948866,-17.733050100000003,T01,0
3.53,353,-0.051,-1.009,-0.015,-1.145916,1.0886202,0.2291832,87.37609499999998,-3.02521824,-17.72159094,T01,0
3.539999999999999,354,-0.052,-1.007,-0.009,-1.3178034,1.0313244,0.4010706,87.36463583999998,-3.03094782,-17.715861359999995,T01,0
3.5499999999999994,355,-0.054,-1.006,-0.01,-1.7188740000000002,1.2605076000000002,0.4583664000000001,87.35890626,-3.03094782,-17.704402199999997,T01,0
3.559999999999999,356,-0.056,-1.005,-0.012,-2.0053530000000004,1.145916,0.286479,87.33598794000002,-3.0366774000000003,-17.69294304,T01,0
3.5699999999999994,357,-0.058,-1.004,-0.011,-2.0626488000000003,1.2032118,0.0,87.31306962,-3.0366774000000003,-17.68148388,T01,0
3.579999999999999,358,-0.059,-1.006,-0.008,-2.0053530000000004,1.5469866,-0.1718874,87.29015129999998,-3.03094782,-17.66429514,T01,0
3.5899999999999994,359,-0.058,-1.009,-0.009,-2.1199446,1.8334656000000005,-0.1718874,87.26723297999996,-3.03094782,-17.647106400000006,T01,0
3.599999999999999,360,-0.054,-1.012,-0.011,-2.2345362,1.7188740000000002,-0.0572958,87.25577381999999,-3.02521824,-17.62991766,T01,0
3.61,361,-0.051,-1.01,-0.016,-2.7501984,1.7188740000000002,0.1718874,87.22712592,-3.02521824,-17.61272892,T01,0
3.619999999999999,362,-0.05,-1.007,-0.019,-2.6356068,1.9480572,0.4010706,87.19847802,-3.03094782,-17.59554018,T01,0
3.63,363,-0.049,-1.006,-0.016,-2.2345362,1.7188740000000002,0.572958,87.17555970000002,-3.0366774000000003,-17.57835144,T01,0
3.6399999999999992,364,-0.051,-1.007,-0.013,-2.1772404,1.4896908000000002,0.5156622000000001,87.15264138,-3.04240698,-17.561162699999993,T01,0
3.649999999999999,365,-0.055,-1.006,-0.014,-2.6929026,1.7188740000000002,0.5156622000000001,87.12972306,-3.04813656,-17.54397396,T01,0
3.6599999999999993,366,-0.058,-1.001,-0.016,-2.9220858,2.1199446,0.3437748,87.10107516000002,-3.04813656,-17.52105564,T01,0
3.669999999999999,367,-0.06,-0.997,-0.017,-2.578311,2.5210152000000003,0.4010706,87.07242726,-3.05386614,-17.498137319999998,T01,0
3.6799999999999993,368,-0.061,-1.001,-0.017,-1.9480572,2.7501984,0.3437748,87.04950894,-3.05959572,-17.46948942,T01,0
3.689999999999999,369,-0.059,-1.007,-0.015,-1.6042823999999998,2.578311,0.3437748,87.03232019999999,-3.05959572,-17.4465711,T01,0
3.6999999999999993,370,-0.057,-1.011,-0.012,-1.2032118,2.5210152000000003,0.4583664000000001,87.03232019999999,-3.0653253000000005,-17.4179232,T01,0
3.709999999999999,371,-0.054,-1.014,-0.011,-1.145916,2.578311,0.6302538000000001,87.02086104,-3.07105488,-17.39500488,T01,0
3.7199999999999993,372,-0.053,-1.014,-0.012,-1.2032118,2.291832,0.6875496,87.00940188,-3.07678446,-17.37208656,T01,0
3.729999999999999,373,-0.054,-1.007,-0.012,-0.9740286,1.7761698,0.6302538000000001,86.99794272,-3.0825140400000004,-17.354897819999998,T01,0
3.7399999999999993,374,-0.055,-1.002,-0.01,-0.8594370000000001,1.3178034,0.4583664000000001,86.98648356,-3.08824362,-17.33770908,T01,0
3.749999999999999,375,-0.056,-1.0,-0.0069999999999999,-0.9167328,0.9740286,0.4010706,87.00940188,-3.0825140400000004,-17.331979500000006,T01,0
3.7599999999999993,376,-0.057,-1.004,-0.0069999999999999,-0.8594370000000001,0.8021411999999999,0.2291832,86.99794272,-3.08824362,-17.326249920000002,T01,0
3.769999999999999,377,-0.057,-1.007,-0.008,-0.8021411999999999,0.6302538000000001,0.1718874,86.99221314,-3.08824362,-17.32052034,T01,0
3.78,378,-0.057,-1.008,-0.01,-0.6875496,0.4010706,0.0572958,86.98075398,-3.08824362,-17.31479076,T01,0
3.789999999999999,379,-0.053,-1.009,-0.009,-0.572958,0.1718874,0.0572958,86.97502440000002,-3.08824362,-17.31479076,T01,0
3.8,380,-0.054,-1.008,-0.012,-0.6875496,0.0,0.1145916,87.03232019999999,-3.07105488,-17.32052034,T01,0
3.809999999999999,381,-0.054,-1.006,-0.014,-0.7448454000000001,-0.1718874,0.0572958,87.02659062000002,-3.07678446,-17.32052034,T01,0
3.82,382,-0.057,-1.005,-0.016,-0.5156622000000001,-0.286479,0.0572958,87.02086104,-3.07678446,-17.326249920000002,T01,0
3.829999999999999,383,-0.06,-1.005,-0.016,-0.4010706,-0.1718874,0.0,87.01513145999998,-3.07678446,-17.326249920000002,T01,0
3.84,384,-0.062,-1.004,-0.016,-0.1718874,-0.1145916,-0.0572958,87.01513145999998,-3.07678446,-17.326249920000002,T01,0
3.849999999999999,385,-0.06,-1.004,-0.015,0.0572958,0.1718874,-0.0572958,87.09534558,-3.0825140400000004,-17.331979500000006,T01,0
3.859999999999999,386,-0.057,-1.004,-0.015,0.4010706,0.0,0.0,87.10107516000002,-3.0825140400000004,-17.331979500000006,T01,0
3.869999999999999,387,-0.056,-1.004,-0.014,0.5156622000000001,-0.1718874,-0.0572958,87.10680474,-3.0825140400000004,-17.331979500000006,T01,0
3.879999999999999,388,-0.055,-1.004,-0.013,0.4010706,-0.4010706,-0.1718874,87.11253432000002,-3.0825140400000004,-17.33770908,T01,0
3.8899999999999992,389,-0.057,-1.005,-0.01,0.4010706,-0.4010706,-0.2291832,87.11253432000002,-3.07678446,-17.33770908,T01,0
3.899999999999999,390,-0.06,-1.007,-0.012,0.2291832,-0.1718874,-0.286479,87.18701886,-3.0939732,-17.34343866,T01,0
3.9099999999999993,391,-0.062,-1.009,-0.011,0.1718874,0.2291832,-0.286479,87.19274844,-3.08824362,-17.34343866,T01,0
3.919999999999999,392,-0.064,-1.013,-0.015,0.0,0.5156622000000001,-0.2291832,87.18701886,-3.08824362,-17.33770908,T01,0
3.9299999999999993,393,-0.061,-1.011,-0.017,-0.0572958,0.6875496,-0.0572958,87.18701886,-3.08824362,-17.331979500000006,T01,0
3.939999999999999,394,-0.057,-1.007,-0.017,0.0,0.6875496,0.0,87.18701886,-3.08824362,-17.32052034,T01,0
3.9499999999999993,395,-0.055,-1.005,-0.014,0.0,0.6302538000000001,0.0,87.2328555,-3.0653253000000005,-17.32052034,T01,0
3.959999999999999,396,-0.054,-1.003,-0.012,0.0,0.6302538000000001,0.0,87.2328555,-3.0653253000000005,-17.31479076,T01,0
3.9699999999999993,397,-0.056,-1.006,-0.011,-0.1145916,0.572958,0.0,87.2328555,-3.0653253000000005,-17.30906118,T01,0
3.979999999999999,398,-0.058,-1.006,-0.011,-0.5156622000000001,0.6302538000000001,-0.0572958,87.22712592,-3.0653253000000005,-17.303331600000003,T01,0
3.9899999999999993,399,-0.061,-1.004,-0.012,-0.572958,0.9740286,-0.1145916,87.22139634,-3.05959572,-17.29187244,T01,0
3.999999999999999,400,-0.061,-1.008,-0.014,-0.5156622000000001,1.2032118,-0.2291832,87.22712592,-3.05959572,-17.280413279999998,T01,0
4.01,401,-0.057,-1.01,-0.017,-0.7448454000000001,1.432395,-0.1145916,87.22139634,-3.05959572,-17.268954119999997,T01,0
4.02,402,-0.055,-1.01,-0.016,-0.8021411999999999,1.3750992,0.1718874,87.20993718,-3.0653253000000005,-17.251765380000002,T01,0
4.029999999999999,403,-0.056,-1.008,-0.014,-0.9167328,1.3178034,0.5156622000000001,87.19847802,-3.0653253000000005,-17.24030622,T01,0
4.039999999999999,404,-0.057,-1.01,-0.013,-1.145916,1.2605076000000002,0.572958,87.18701886,-3.07105488,-17.22884706,T01,0
4.049999999999999,405,-0.056,-1.01,-0.012,-1.4896908000000002,1.6042823999999998,0.5156622000000001,87.18701886,-3.07678446,-17.21165832,T01,0
4.06,406,-0.056,-1.007,-0.011,-1.7761698,1.7761698,0.4010706,87.16410053999998,-3.0825140400000004,-17.19446958,T01,0
4.069999999999999,407,-0.057,-1.004,-0.012,-1.7188740000000002,1.7761698,0.1718874,87.14691180000001,-3.0825140400000004,-17.17728084,T01,0
4.079999999999999,408,-0.059,-1.004,-0.01,-1.6615782,1.7761698,0.0572958,87.12972306,-3.0825140400000004,-17.1600921,T01,0
4.089999999999999,409,-0.06,-1.006,-0.01,-1.5469866,1.6615782,0.0572958,87.11253432000002,-3.0825140400000004,-17.14290336,T01,0
4.099999999999999,410,-0.061,-1.008,-0.012,-1.6615782,1.6042823999999998,0.0,87.11253432000002,-3.0825140400000004,-17.12571462,T01,0
4.109999999999999,411,-0.059,-1.01,-0.013,-1.7761698,1.5469866,0.0572958,87.089616,-3.08824362,-17.114255460000006,T01,0
4.119999999999999,412,-0.059,-1.011,-0.014,-1.9480572,1.6615782,0.1718874,87.06669767999998,-3.08824362,-17.09706672,T01,0
4.129999999999999,413,-0.057,-1.008,-0.011,-1.8334656000000005,2.2345362,0.0572958,87.04950894,-3.08824362,-17.0741484,T01,0
4.139999999999999,414,-0.056,-1.009,-0.015,-1.7761698,2.9793816000000004,0.1145916,87.02659062000002,-3.08824362,-17.0455005,T01,0
4.15,415,-0.057,-1.007,-0.019,-2.2345362,2.9220858,0.286479,87.00940188,-3.08824362,-17.0168526,T01,0
4.159999999999999,416,-0.057,-1.005,-0.014,-1.9480572,2.6356068,0.3437748,86.99221314,-3.0939732,-16.9882047,T01,0
4.169999999999999,417,-0.055,-1.005,-0.011,-1.8334656000000005,2.6929026,0.4583664000000001,86.96929482,-3.0997027800000003,-16.96528638,T01,0
4.179999999999999,418,-0.052,-1.006,-0.008,-1.8907614,2.3491278,0.572958,86.94637650000001,-3.1054323600000004,-16.93663848,T01,0
4.19,419,-0.056,-1.011,-0.006,-2.0626488000000003,2.3491278,0.572958,86.92345818,-3.11116194,-16.91372016,T01,0
4.199999999999999,420,-0.059,-1.011,-0.014,-2.7501984,2.8074942000000003,0.4010706,86.90053986000002,-3.11689152,-16.88507226,T01,0
4.209999999999999,421,-0.064,-1.006,-0.016,-2.6929026,3.5523396000000003,0.0,86.87189196,-3.11116194,-16.850694779999998,T01,0
4.219999999999999,422,-0.065,-1.007,-0.014,-2.0626488000000003,4.4117766,-0.2291832,86.84897364,-3.11116194,-16.81058772,T01,0
4.23,423,-0.064,-1.006,-0.011,-1.8334656000000005,4.8128472,-0.1145916,86.82605532,-3.1054323600000004,-16.7590215,T01,0
4.239999999999999,424,-0.058,-1.006,-0.01,-1.7761698,4.297185,0.1718874,86.80313699999998,-3.1054323600000004,-16.71891444,T01,0
4.249999999999999,425,-0.05,-1.008,-0.012,-2.0626488000000003,3.4377480000000005,0.5156622000000001,86.79740741999998,-3.1054323600000004,-16.68453696,T01,0
4.259999999999999,426,-0.043,-1.011,-0.016,-2.4064236,2.9220858,0.8594370000000001,86.76875952,-3.11689152,-16.65588906,T01,0
4.27,427,-0.041,-1.012,-0.021,-2.578311,2.4637194,1.0313244,86.74011162,-3.1226211000000004,-16.632970739999998,T01,0
4.279999999999999,428,-0.042,-1.009,-0.027,-2.4637194,2.0053530000000004,1.0313244,86.71719329999998,-3.13408026,-16.61005242,T01,0
4.289999999999999,429,-0.049,-1.0,-0.024,-2.0626488000000003,1.5469866,0.9167328,86.69427498,-3.14553942,-16.598593259999998,T01,0
4.299999999999999,430,-0.056,-0.996,-0.016,-1.0313244,0.9740286,0.6302538000000001,86.71146372000004,-3.151269,-16.5871341,T01,0
4.309999999999999,431,-0.058,-0.999,-0.015,-0.9167328,0.6875496,0.286479,86.70000456,-3.151269,-16.58140452,T01,0
4.319999999999999,432,-0.057,-1.003,-0.018,-1.2605076000000002,0.4583664000000001,0.1718874,86.68854540000002,-3.15699858,-16.57567494,T01,0
4.329999999999999,433,-0.059,-1.003,-0.017,-1.2605076000000002,0.4583664000000001,0.0572958,86.67708624000002,-3.15699858,-16.56994536,T01,0
4.339999999999999,434,-0.06,-1.005,-0.013,-1.0886202,0.8021411999999999,0.0572958,86.66562708000002,-3.15699858,-16.56421578,T01,0
4.349999999999999,435,-0.061,-1.009,-0.014,-1.145916,1.3178034,0.0,86.67708624000002,-3.15699858,-16.55275662,T01,0
4.359999999999999,436,-0.061,-1.011,-0.014,-1.3750992,1.6615782,0.1145916,86.66562708000002,-3.1627281600000003,-16.53556788,T01,0
4.369999999999999,437,-0.062,-1.012,-0.018,-1.4896908000000002,1.8334656000000005,0.3437748,86.64843834,-3.1627281600000003,-16.51837914,T01,0
4.379999999999999,438,-0.059,-1.008,-0.021,-1.6615782,1.7761698,0.572958,86.62552002,-3.16845774,-16.501190400000002,T01,0
4.389999999999999,439,-0.057,-1.003,-0.018,-1.432395,1.2605076000000002,0.7448454000000001,86.61406086000002,-3.1741873200000006,-16.484001659999997,T01,0
4.4,440,-0.055,-1.002,-0.016,-1.0886202,0.8021411999999999,0.6875496,86.63124959999998,-3.1741873200000006,-16.47827208,T01,0
4.409999999999999,441,-0.054,-1.0,-0.014,-0.9740286,0.3437748,0.5156622000000001,86.61979044,-3.1799169000000003,-16.47827208,T01,0
4.419999999999999,442,-0.059,-1.002,-0.013,-0.9167328,0.1718874,0.2291832,86.61406086000002,-3.1799169000000003,-16.4725425,T01,0
4.429999999999999,443,-0.066,-1.008,-0.016,-0.9167328,0.1718874,-0.1145916,86.60260170000002,-3.1799169000000003,-16.4725425,T01,0
4.44,444,-0.07,-1.009,-0.02,-1.0886202,0.3437748,-0.4010706,86.59114253999998,-3.1741873200000006,-16.4725425,T01,0
4.449999999999999,445,-0.071,-1.008,-0.021,-0.9740286,0.5156622000000001,-0.6875496,86.60260170000002,-3.18564648,-16.461083340000002,T01,0
4.459999999999999,446,-0.068,-1.01,-0.018,-0.7448454000000001,0.9740286,-0.6875496,86.59687212,-3.1799169000000003,-16.45535376,T01,0
4.469999999999999,447,-0.063,-1.009,-0.02,-0.9740286,1.432395,-0.4010706,86.58541296,-3.1741873200000006,-16.438165020000003,T01,0
4.48,448,-0.058,-1.006,-0.021,-0.8594370000000001,1.432395,0.0,86.5739538,-3.1741873200000006,-16.426705860000002,T01,0
4.489999999999999,449,-0.058,-1.002,-0.019,-0.7448454000000001,1.7761698,0.1718874,86.56822422,-3.1741873200000006,-16.409517119999997,T01,0
4.499999999999999,450,-0.061,-1.001,-0.018,-0.572958,1.9480572,0.3437748,86.58541296,-3.1799169000000003,-16.386598799999998,T01,0
4.509999999999999,451,-0.059,-1.002,-0.015,-0.3437748,1.8907614,0.286479,86.57968338,-3.1799169000000003,-16.36941006,T01,0
4.519999999999999,452,-0.056,-1.004,-0.015,-0.1718874,1.432395,0.286479,86.5739538,-3.18564648,-16.3579509,T01,0
4.529999999999999,453,-0.054,-1.006,-0.012,-0.0572958,0.6302538000000001,0.286479,86.5739538,-3.18564648,-16.34649174,T01,0
4.539999999999999,454,-0.056,-1.01,-0.014,-0.2291832,0.0,0.1718874,86.5739538,-3.1913760600000005,-16.35222132,T01,0
4.549999999999999,455,-0.056,-1.011,-0.022,-0.6875496,-0.2291832,0.1145916,86.60833127999999,-3.1741873200000006,-16.3579509,T01,0
4.559999999999999,456,-0.056,-1.006,-0.021,-0.6302538000000001,-0.1145916,-0.0572958,86.60260170000002,-3.1741873200000006,-16.3579509,T01,0
4.569999999999999,457,-0.06,-1.003,-0.016,-0.286479,-0.1145916,-0.2291832,86.60260170000002,-3.1741873200000006,-16.36368048,T01,0
4.579999999999999,458,-0.065,-1.004,-0.014,-0.1145916,0.2291832,-0.3437748,86.59687212,-3.16845774,-16.3579509,T01,0
4.589999999999999,459,-0.066,-1.006,-0.016,-0.1145916,0.286479,-0.4010706,86.59687212,-3.1627281600000003,-16.3579509,T01,0
4.599999999999999,460,-0.067,-1.011,-0.016,-0.1718874,0.572958,-0.3437748,86.64270875999998,-3.1741873200000006,-16.35222132,T01,0
4.609999999999999,461,-0.063,-1.011,-0.021,-0.4010706,0.8021411999999999,-0.0572958,86.63697918,-3.1741873200000006,-16.34076216,T01,0
4.619999999999999,462,-0.059,-1.009,-0.023,-0.5156622000000001,0.8021411999999999,0.3437748,86.63124959999998,-3.1741873200000006,-16.33503258,T01,0
4.629999999999999,463,-0.058,-1.006,-0.022,-0.286479,0.7448454000000001,0.5156622000000001,86.62552002,-3.1799169000000003,-16.323573420000002,T01,0
4.639999999999999,464,-0.059,-1.001,-0.021,-0.2291832,1.3750992,0.4583664000000001,86.62552002,-3.18564648,-16.312114259999998,T01,0
4.65,465,-0.056,-1.003,-0.021,0.0,1.5469866,0.0,86.65416791999998,-3.1741873200000006,-16.3006551,T01,0
4.659999999999999,466,-0.054,-1.005,-0.023,-0.0572958,1.3178034,-0.3437748,86.65416791999998,-3.1741873200000006,-16.28919594,T01,0
4.669999999999999,467,-0.056,-1.006,-0.023,0.1145916,0.572958,-0.572958,86.65416791999998,-3.16845774,-16.28346636,T01,0
4.679999999999999,468,-0.058,-1.01,-0.023,0.0,0.1718874,-0.572958,86.65416791999998,-3.1627281600000003,-16.27773678,T01,0
4.69,469,-0.06,-1.005,-0.022,0.0572958,0.3437748,-0.3437748,86.65416791999998,-3.15699858,-16.27773678,T01,0
4.699999999999999,470,-0.065,-1.005,-0.019,0.1718874,0.9740286,-0.2291832,86.68854540000002,-3.16845774,-16.26627762,T01,0
4.709999999999999,471,-0.066,-1.005,-0.021,0.0572958,1.6615782,-0.3437748,86.68854540000002,-3.16845774,-16.24908888,T01,0
4.719999999999999,472,-0.063,-1.008,-0.013,0.6875496,2.0626488000000003,-0.286479,86.69427498,-3.1627281600000003,-16.22617056,T01,0
4.729999999999999,473,-0.055,-1.012,-0.0069999999999999,1.145916,2.0626488000000003,0.0572958,86.70573413999998,-3.1627281600000003,-16.208981819999998,T01,0
4.739999999999999,474,-0.05,-1.017,-0.009,0.572958,1.7761698,0.5156622000000001,86.71146372000004,-3.16845774,-16.19179308,T01,0
4.749999999999999,475,-0.05,-1.015,-0.015,0.1145916,0.9167328,0.6875496,86.75157078,-3.15699858,-16.1860635,T01,0
4.759999999999999,476,-0.052,-1.009,-0.016,-0.0572958,0.4583664000000001,0.5156622000000001,86.75157078,-3.15699858,-16.18033392,T01,0
4.769999999999999,477,-0.051,-1.004,-0.014,-0.3437748,0.6302538000000001,0.1718874,86.7458412,-3.1627281600000003,-16.17460434,T01,0
4.779999999999999,478,-0.057,-0.999,-0.015,-0.8021411999999999,0.9740286,-0.0572958,86.74011162,-3.1627281600000003,-16.16314518,T01,0
4.789999999999999,479,-0.061,-1.001,-0.02,-1.0886202,1.2032118,-0.5156622000000001,86.72865246,-3.15699858,-16.15168602,T01,0
4.799999999999999,480,-0.059,-1.003,-0.021,-0.4583664000000001,0.9740286,-0.8021411999999999,86.7458412,-3.1398098400000003,-16.14595644,T01,0
4.809999999999999,481,-0.054,-1.003,-0.019,-0.1145916,0.8021411999999999,-0.6302538000000001,86.7458412,-3.13408026,-16.140226860000002,T01,0
4.819999999999999,482,-0.051,-1.003,-0.016,0.286479,0.286479,-0.1718874,86.7458412,-3.13408026,-16.134497279999998,T01,0
4.829999999999999,483,-0.053,-1.006,-0.014,0.4583664000000001,-0.0572958,0.0,86.75157078,-3.13408026,-16.134497279999998,T01,0
4.839999999999999,484,-0.056,-1.005,-0.014,0.4583664000000001,0.0,0.1145916,86.75730036,-3.13408026,-16.134497279999998,T01,0
4.849999999999999,485,-0.059,-1.008,-0.013,0.5156622000000001,0.1718874,0.0,86.85470322,-3.1398098400000003,-16.140226860000002,T01,0
4.859999999999999,486,-0.061,-1.009,-0.013,0.6875496,0.1145916,0.0,86.8604328,-3.1398098400000003,-16.140226860000002,T01,0
4.869999999999999,487,-0.061,-1.008,-0.009,0.6875496,0.2291832,-0.0572958,86.87189196,-3.1398098400000003,-16.134497279999998,T01,0
4.879999999999999,488,-0.059,-1.007,-0.009,0.572958,0.1718874,-0.1145916,86.87762153999998,-3.13408026,-16.134497279999998,T01,0
4.889999999999999,489,-0.056,-1.007,-0.009,0.5156622000000001,0.0,-0.1145916,86.88335112,-3.13408026,-16.134497279999998,T01,0
4.9,490,-0.058,-1.007,-0.005,0.1145916,0.286479,-0.286479,86.98648356,-3.13408026,-16.134497279999998,T01,0
4.909999999999999,491,-0.063,-1.008,-0.003,-0.4010706,0.9167328,-0.572958,86.98075398,-3.12835068,-16.1287677,T01,0
4.919999999999999,492,-0.064,-1.011,-0.002,-1.432395,2.0626488000000003,-0.8021411999999999,86.96356524000002,-3.11689152,-16.105849380000002,T01,0
4.929999999999999,493,-0.063,-1.011,-0.009,-2.1772404,2.9793816000000004,-0.9167328,86.94064691999998,-3.1054323600000004,-16.07720148,T01,0
4.939999999999999,494,-0.06,-1.008,-0.017,-2.5210152000000003,3.0366774,-0.8594370000000001,86.91199902000002,-3.0997027800000003,-16.04855358,T01,0
4.949999999999999,495,-0.058,-0.998,-0.021,-2.1772404,2.5210152000000003,-0.8594370000000001,86.89481028,-3.08824362,-16.02563526,T01,0
4.959999999999999,496,-0.054,-0.996,-0.018,-1.145916,1.9480572,-0.8021411999999999,86.88335112,-3.07678446,-16.002716940000006,T01,0
4.969999999999999,497,-0.051,-1.0,-0.014,-0.3437748,1.3178034,-0.8594370000000001,86.87762153999998,-3.07105488,-15.991257780000002,T01,0
4.979999999999999,498,-0.053,-1.004,-0.012,-0.2291832,0.9740286,-0.9167328,86.87189196,-3.05959572,-15.9855282,T01,0
4.989999999999999,499,-0.054,-1.008,-0.01,-0.2291832,0.5156622000000001,-0.8021411999999999,86.87189196,-3.05386614,-15.97979862,T01,0
4.999999999999999,500,-0.053,-1.014,-0.012,-0.2291832,0.0,-0.7448454000000001,86.91772859999998,-3.03094782,-15.9855282,T01,0
5.009999999999999,501,-0.054,-1.014,-0.012,-0.2291832,-0.1718874,-0.6302538000000001,86.91772859999998,-3.02521824,-15.9855282,T01,0
5.019999999999999,502,-0.055,-1.013,-0.013,-0.1145916,-0.1145916,-0.6302538000000001,86.91199902000002,-3.01948866,-15.9855282,T01,0
5.029999999999999,503,-0.057,-1.008,-0.018,-0.2291832,0.0,-0.8594370000000001,86.91199902000002,-3.0137590800000003,-15.9855282,T01,0
5.039999999999999,504,-0.055,-1.004,-0.017,0.0,0.0,-1.0313244,86.91199902000002,-3.00229992,-15.991257780000002,T01,0
5.049999999999999,505,-0.055,-1.002,-0.017,0.4583664000000001,-0.1718874,-1.0313244,86.94637650000001,-2.99084076,-15.991257780000002,T01,0
5.059999999999999,506,-0.056,-1.001,-0.014,0.4583664000000001,-0.3437748,-1.0313244,86.94637650000001,-2.9793816000000004,-15.99698736,T01,0
5.069999999999999,507,-0.057,-1.0,-0.014,0.572958,-0.5156622000000001,-0.9167328,86.95783566,-2.96792244,-16.002716940000006,T01,0
5.079999999999999,508,-0.056,-1.002,-0.014,0.6302538000000001,-0.9167328,-0.8594370000000001,86.96356524000002,-2.96219286,-16.0141761,T01,0
5.089999999999999,509,-0.058,-1.003,-0.012,0.6302538000000001,-0.9167328,-0.7448454000000001,86.96929482,-2.9507337,-16.02563526,T01,0
5.099999999999999,510,-0.06,-1.006,-0.013,0.6875496,-0.7448454000000001,-0.4583664000000001,87.00940188,-2.9564632800000004,-16.031364840000002,T01,0
5.109999999999999,511,-0.062,-1.007,-0.008,0.9740286,-0.5156622000000001,-0.286479,87.02086104,-2.9564632800000004,-16.03709442,T01,0
5.119999999999999,512,-0.062,-1.011,-0.008,0.9740286,-0.0572958,-0.1145916,87.03232019999999,-2.9564632800000004,-16.03709442,T01,0
5.129999999999999,513,-0.061,-1.009,-0.008,0.9167328,0.1145916,-0.0572958,87.04377936,-2.9507337,-16.03709442,T01,0
5.139999999999999,514,-0.057,-1.008,-0.0069999999999999,0.9740286,0.286479,0.0,87.04950894,-2.9507337,-16.031364840000002,T01,0
5.149999999999999,515,-0.058,-1.004,-0.0069999999999999,0.9167328,0.4010706,0.0,87.11253432000002,-2.96219286,-16.031364840000002,T01,0
5.159999999999999,516,-0.059,-1.0,-0.004,1.0313244,0.572958,0.0,87.12399348,-2.96219286,-16.02563526,T01,0
5.169999999999999,517,-0.06,-1.001,-0.002,1.2605076000000002,0.9167328,-0.0572958,87.13545264000004,-2.96219286,-16.0141761,T01,0
5.179999999999999,518,-0.061,-1.004,-0.005,1.3178034,0.6875496,-0.0572958,87.14691180000001,-2.9564632800000004,-16.00844652,T01,0
5.189999999999999,519,-0.063,-1.005,-0.006,1.2032118,0.5156622000000001,-0.1718874,87.15837096,-2.9564632800000004,-16.002716940000006,T01,0
5.199999999999999,520,-0.061,-1.005,-0.005,1.2605076000000002,0.8021411999999999,-0.1718874,87.20420759999998,-2.96219286,-15.99698736,T01,0
5.209999999999999,521,-0.058,-1.006,-0.005,1.145916,1.0313244,-0.1718874,87.21566676,-2.9564632800000004,-15.9855282,T01,0
5.219999999999999,522,-0.057,-1.008,-0.001,1.0886202,1.145916,0.0,87.22712592,-2.9564632800000004,-15.974069039999998,T01,0
5.229999999999999,523,-0.056,-1.011,0.0,0.9740286,1.0313244,0.0,87.23858508000002,-2.9564632800000004,-15.96260988,T01,0
5.239999999999999,524,-0.055,-1.013,0.001,0.9167328,1.2605076000000002,0.0,87.24431466,-2.9564632800000004,-15.951150719999998,T01,0
5.249999999999999,525,-0.054,-1.01,0.002,0.9740286,1.4896908000000002,0.0572958,87.29015129999998,-2.9564632800000004,-15.93396198,T01,0
5.259999999999999,526,-0.058,-1.006,0.006,1.2605076000000002,1.5469866,0.0572958,87.30161045999998,-2.9564632800000004,-15.92250282,T01,0
5.269999999999999,527,-0.059,-1.003,0.008,1.6615782,1.0313244,-0.2291832,87.31879920000002,-2.9507337,-15.91104366,T01,0
5.279999999999999,528,-0.058,-1.003,0.009,1.7761698,0.5156622000000001,-0.6302538000000001,87.33598794000002,-2.94500412,-15.90531408,T01,0
5.289999999999999,529,-0.056,-1.005,0.013,1.5469866,0.286479,-0.8594370000000001,87.35317668,-2.93927454,-15.8995845,T01,0
5.299999999999999,530,-0.055,-1.008,0.013,1.145916,0.2291832,-0.9167328,87.41620206,-2.92781538,-15.90531408,T01,0
5.309999999999999,531,-0.051,-1.011,0.006,0.572958,0.3437748,-0.9167328,87.42193164,-2.91635622,-15.8995845,T01,0
5.319999999999999,532,-0.048,-1.01,0.003,0.3437748,0.4583664000000001,-0.6302538000000001,87.42766122,-2.91062664,-15.89385492,T01,0
5.329999999999999,533,-0.047,-1.008,0.003,0.572958,0.6302538000000001,-0.3437748,87.4333908,-2.90489706,-15.888125340000002,T01,0
5.339999999999999,534,-0.049,-1.003,0.003,0.5156622000000001,0.7448454000000001,0.0,87.43912037999998,-2.90489706,-15.88239576,T01,0
5.349999999999999,535,-0.049,-1.001,0.006,0.6875496,0.572958,0.0572958,87.5193345,-2.88770832,-15.88239576,T01,0
5.359999999999999,536,-0.05,-1.004,0.005,0.6302538000000001,0.4010706,0.1718874,87.52506408,-2.8934379,-15.876666179999996,T01,0
5.369999999999999,537,-0.051,-1.006,0.001,0.286479,0.2291832,0.1718874,87.52506408,-2.8934379,-15.876666179999996,T01,0
5.379999999999999,538,-0.052,-1.007,-0.002,0.286479,0.1145916,0.0,87.53079366,-2.8934379,-15.876666179999996,T01,0
5.389999999999999,539,-0.052,-1.005,-0.003,0.5156622000000001,0.286479,-0.0572958,87.53652324,-2.8934379,-15.8709366,T01,0
5.399999999999999,540,-0.053,-1.005,-0.003,1.0886202,0.3437748,-0.0572958,87.57663029999998,-2.88770832,-15.8709366,T01,0
5.409999999999999,541,-0.053,-1.004,0.001,1.3750992,0.5156622000000001,-0.0572958,87.59381904,-2.88770832,-15.86520702,T01,0
5.419999999999999,542,-0.056,-1.011,0.011,1.2032118,1.0313244,-0.0572958,87.6052782,-2.88770832,-15.85374786,T01,0
5.429999999999999,543,-0.056,-1.017,0.011,0.0,2.291832,0.0,87.59954862,-2.88770832,-15.83082954,T01,0
5.439999999999999,544,-0.054,-1.021,0.005,-1.2032118,3.380452200000001,0.0,87.58808946,-2.88197874,-15.796452060000002,T01,0
5.449999999999999,545,-0.052,-1.016,0.001,-1.7761698,3.666931200000001,0.0572958,87.57663029999998,-2.88197874,-15.762074579999998,T01,0
5.459999999999999,546,-0.047,-1.011,0.0,-1.7188740000000002,3.4377480000000005,0.0572958,87.55944156000002,-2.88197874,-15.7276971,T01,0
5.469999999999999,547,-0.046,-1.007,0.0,-1.3750992,3.0366774,0.1145916,87.54225282,-2.88197874,-15.6990492,T01,0
5.479999999999999,548,-0.044,-1.007,0.001,-1.0313244,2.8074942000000003,0.1145916,87.53079366,-2.88197874,-15.6704013,T01,0
5.489999999999999,549,-0.045,-1.01,0.002,-0.8021411999999999,2.5210152000000003,0.0,87.5193345,-2.88197874,-15.647482979999998,T01,0
5.499999999999999,550,-0.047,-1.011,0.002,-0.6875496,2.2345362,0.0572958,87.54225282,-2.87624916,-15.63029424,T01,0
5.509999999999999,551,-0.048,-1.013,0.0,-0.6302538000000001,1.8334656000000005,0.0,87.53652324,-2.87624916,-15.60737592,T01,0
5.519999999999999,552,-0.048,-1.015,-0.004,-0.9167328,1.4896908000000002,-0.0572958,87.52506408,-2.87624916,-15.59591676,T01,0
5.529999999999999,553,-0.048,-1.012,-0.0069999999999999,-1.0313244,1.4896908000000002,0.0,87.51360492,-2.87624916,-15.57872802,T01,0
5.539999999999999,554,-0.049,-1.009,-0.01,-1.145916,1.5469866,-0.0572958,87.49641618000004,-2.87624916,-15.561539280000002,T01,0
5.549999999999999,555,-0.048,-1.008,-0.011,-1.2605076000000002,1.7188740000000002,0.0,87.49641618000004,-2.86479,-15.55008012,T01,0
5.559999999999999,556,-0.046,-1.004,-0.01,-1.3178034,1.7188740000000002,0.0,87.48495702,-2.86479,-15.53289138,T01,0
5.569999999999999,557,-0.045,-1.002,-0.0069999999999999,-1.145916,1.4896908000000002,0.0572958,87.47349786,-2.86479,-15.51570264,T01,0
5.579999999999999,558,-0.045,-1.0,-0.003,-1.0886202,1.432395,0.0,87.45630911999999,-2.86479,-15.50424348,T01,0
5.589999999999999,559,-0.047,-1.002,0.0,-1.145916,1.0886202,-0.0572958,87.44484996,-2.86479,-15.492784320000002,T01,0
5.599999999999999,560,-0.049,-1.007,0.003,-1.145916,0.7448454000000001,-0.1718874,87.48495702,-2.85333084,-15.492784320000002,T01,0
5.609999999999999,561,-0.051,-1.01,0.004,-1.3750992,0.7448454000000001,-0.2291832,87.46776828,-2.85333084,-15.48132516,T01,0
5.619999999999999,562,-0.051,-1.013,0.004,-1.6615782,0.8594370000000001,-0.2291832,87.45057954,-2.84760126,-15.47559558,T01,0
5.629999999999999,563,-0.049,-1.014,0.003,-2.0053530000000004,1.0313244,-0.1718874,87.42766122,-2.84760126,-15.46413642,T01,0
5.639999999999999,564,-0.046,-1.014,0.003,-1.9480572,0.8021411999999999,-0.0572958,87.41047248,-2.84760126,-15.45840684,T01,0
5.649999999999999,565,-0.046,-1.011,0.005,-1.9480572,0.6302538000000001,0.0,87.42766122,-2.83041252,-15.452677260000002,T01,0
5.659999999999999,566,-0.046,-1.01,0.009,-1.9480572,0.4583664000000001,0.0572958,87.41047248,-2.8361421,-15.452677260000002,T01,0
5.669999999999999,567,-0.048,-1.01,0.008,-2.0053530000000004,0.286479,0.1145916,87.38755416000002,-2.8361421,-15.44694768,T01,0
5.679999999999999,568,-0.051,-1.007,0.005,-2.4637194,0.4010706,0.0572958,87.35890626,-2.8361421,-15.4412181,T01,0
5.689999999999999,569,-0.054,-1.007,0.003,-2.578311,0.7448454000000001,0.0,87.33598794000002,-2.8361421,-15.435488519999998,T01,0
5.699999999999999,570,-0.054,-1.008,0.0,-2.6356068,0.7448454000000001,0.0,87.33025836,-2.8361421,-15.42975894,T01,0
5.709999999999999,571,-0.053,-1.006,-0.004,-2.8074942000000003,0.3437748,-0.1718874,87.30161045999998,-2.8361421,-15.42975894,T01,0
5.719999999999999,572,-0.052,-1.004,-0.005,-2.6929026,0.572958,-0.1718874,87.27296256,-2.83041252,-15.42402936,T01,0
5.729999999999999,573,-0.049,-1.001,-0.012,-2.8074942000000003,0.8594370000000001,-0.0572958,87.24431466,-2.83041252,-15.4125702,T01,0
5.739999999999999,574,-0.046,-0.997,-0.008,-2.4637194,0.6875496,0.0,87.22139634,-2.83041252,-15.40684062,T01,0
5.749999999999999,575,-0.049,-1.0,-0.002,-1.7761698,0.4010706,0.0572958,87.24431466,-2.82468294,-15.40684062,T01,0
5.759999999999999,576,-0.048,-1.005,0.0,-1.6042823999999998,0.572958,0.0,87.22712592,-2.82468294,-15.40111104,T01,0
5.769999999999999,577,-0.05,-1.008,-0.001,-1.5469866,0.9167328,0.1718874,87.20993718,-2.83041252,-15.38965188,T01,0
5.779999999999999,578,-0.052,-1.008,-0.003,-1.3178034,1.145916,0.1718874,87.19847802,-2.83041252,-15.37819272,T01,0
5.789999999999999,579,-0.051,-1.006,0.0,-0.9167328,0.8594370000000001,0.2291832,87.18701886,-2.83041252,-15.37246314,T01,0
5.799999999999999,580,-0.051,-1.006,0.005,-0.572958,0.4010706,0.1718874,87.29588088,-2.82468294,-15.37819272,T01,0
5.809999999999999,581,-0.05,-1.007,0.008,-0.8594370000000001,0.1718874,0.0572958,87.29015129999998,-2.82468294,-15.37246314,T01,0
5.819999999999999,582,-0.051,-1.009,0.008,-1.3750992,0.2291832,0.0,87.27296256,-2.82468294,-15.37246314,T01,0
5.829999999999999,583,-0.051,-1.01,0.001,-1.9480572,0.8021411999999999,0.0,87.25577381999999,-2.82468294,-15.36100398,T01,0
5.839999999999999,584,-0.05,-1.009,-0.001,-2.0626488000000003,0.9740286,0.0,87.2328555,-2.82468294,-15.355274400000004,T01,0
5.849999999999999,585,-0.05,-1.005,-0.005,-1.8334656000000005,1.0886202,0.0,87.23858508000002,-2.81895336,-15.34381524,T01,0
5.859999999999999,586,-0.048,-1.006,-0.006,-1.3750992,1.145916,0.0572958,87.22712592,-2.81895336,-15.33235608,T01,0
5.869999999999999,587,-0.046,-1.004,-0.009,-1.2032118,0.9740286,0.2291832,87.20993718,-2.82468294,-15.326626499999998,T01,0
5.879999999999999,588,-0.046,-1.002,-0.008,-1.0886202,0.7448454000000001,0.3437748,87.19847802,-2.82468294,-15.31516734,T01,0
5.889999999999999,589,-0.048,-1.003,-0.006,-0.8021411999999999,0.4583664000000001,0.4583664000000001,87.19274844,-2.83041252,-15.31516734,T01,0
5.899999999999999,590,-0.051,-1.003,-0.005,-0.9167328,0.286479,0.4583664000000001,87.22712592,-2.83041252,-15.31516734,T01,0
5.909999999999999,591,-0.053,-1.006,0.0,-0.9167328,0.572958,0.3437748,87.22139634,-2.8361421,-15.303708179999996,T01,0
5.919999999999999,592,-0.055,-1.01,0.004,-1.3178034,1.432395,0.2291832,87.20420759999998,-2.8361421,-15.29224902,T01,0
5.929999999999999,593,-0.055,-1.01,-0.001,-1.8907614,1.6615782,0.1718874,87.18128928,-2.84187168,-15.27506028,T01,0
5.939999999999999,594,-0.054,-1.01,-0.004,-2.1772404,1.7188740000000002,0.0572958,87.15837096,-2.84187168,-15.25787154,T01,0
5.949999999999999,595,-0.054,-1.009,-0.008,-2.3491278,1.7761698,-0.0572958,87.15264138,-2.84187168,-15.240682800000002,T01,0
5.959999999999999,596,-0.053,-1.009,-0.008,-2.0053530000000004,1.7188740000000002,-0.1145916,87.12972306,-2.8361421,-15.223494059999998,T01,0
5.969999999999999,597,-0.052,-1.008,-0.008,-1.6615782,2.0626488000000003,-0.0572958,87.11253432000002,-2.8361421,-15.206305319999998,T01,0
5.979999999999999,598,-0.053,-1.008,-0.002,-1.4896908000000002,2.2345362,0.1145916,87.09534558,-2.8361421,-15.183387,T01,0
5.989999999999998,599,-0.053,-1.009,-0.002,-1.5469866,1.9480572,0.0572958,87.07815683999998,-2.84187168,-15.16046868,T01,0
5.999999999999999,600,-0.052,-1.01,-0.0069999999999999,-1.7188740000000002,1.7188740000000002,0.0,87.08388642,-2.8361421,-15.149009520000002,T01,0
6.009999999999999,601,-0.051,-1.013,-0.01,-1.7761698,1.3178034,0.0,87.06669767999998,-2.8361421,-15.131820780000002,T01,0
6.019999999999999,602,-0.049,-1.012,-0.011,-1.8334656000000005,1.0313244,-0.0572958,87.04377936,-2.8361421,-15.126091199999998,T01,0
6.029999999999999,603,-0.047,-1.01,-0.013,-2.0053530000000004,0.9167328,-0.0572958,87.02659062000002,-2.8361421,-15.11463204,T01,0
6.039999999999999,604,-0.048,-1.006,-0.014,-2.0626488000000003,0.7448454000000001,-0.0572958,87.0036723,-2.83041252,-15.10890246,T01,0
6.049999999999999,605,-0.051,-1.003,-0.014,-2.1199446,0.7448454000000001,-0.1718874,86.99794272,-2.83041252,-15.10317288,T01,0
6.059999999999999,606,-0.054,-1.0,-0.014,-2.0626488000000003,0.8594370000000001,-0.1718874,86.97502440000002,-2.83041252,-15.091713719999998,T01,0
6.069999999999999,607,-0.054,-0.999,-0.012,-1.7188740000000002,1.0313244,-0.1718874,86.95783566,-2.82468294,-15.08025456,T01,0
6.079999999999999,608,-0.054,-1.004,-0.009,-1.4896908000000002,1.3750992,-0.0572958,86.94064691999998,-2.82468294,-15.0687954,T01,0
6.089999999999999,609,-0.053,-1.005,-0.005,-1.3178034,1.4896908000000002,0.0,86.92918776,-2.82468294,-15.05160666,T01,0
6.099999999999999,610,-0.052,-1.011,-0.004,-1.3178034,1.5469866,0.1718874,86.94637650000001,-2.82468294,-15.0401475,T01,0
6.109999999999999,611,-0.051,-1.013,-0.006,-1.5469866,1.2605076000000002,0.286479,86.92918776,-2.82468294,-15.028688340000002,T01,0
6.119999999999999,612,-0.05,-1.015,-0.01,-1.8907614,1.2605076000000002,0.4010706,86.90626943999996,-2.83041252,-15.01722918,T01,0
6.129999999999999,613,-0.049,-1.016,-0.012,-2.2345362,1.3750992,0.4583664000000001,86.88335112,-2.8361421,-15.000040439999998,T01,0
6.139999999999999,614,-0.051,-1.01,-0.014,-2.4637194,1.5469866,0.4010706,86.85470322,-2.8361421,-14.98858128,T01,0
6.149999999999999,615,-0.052,-1.005,-0.013,-2.4064236,1.8907614,0.3437748,86.84897364,-2.84187168,-14.96566296,T01,0
6.159999999999999,616,-0.054,-1.001,-0.015,-2.4637194,1.8907614,0.286479,86.82032574,-2.84187168,-14.94847422,T01,0
6.169999999999999,617,-0.054,-1.0,-0.011,-2.1772404,1.8334656000000005,0.1718874,86.79740741999998,-2.84760126,-14.93128548,T01,0
6.179999999999999,618,-0.053,-1.001,-0.01,-2.0626488000000003,1.9480572,0.1145916,86.7744891,-2.84760126,-14.914096740000002,T01,0
6.189999999999999,619,-0.054,-1.002,-0.011,-1.9480572,1.7188740000000002,0.1145916,86.75157078,-2.84760126,-14.896907999999998,T01,0
6.199999999999998,620,-0.053,-1.005,-0.008,-1.6615782,1.2032118,0.1718874,86.76875952,-2.84760126,-14.88544884,T01,0
6.209999999999999,621,-0.053,-1.008,-0.01,-1.6042823999999998,1.145916,0.286479,86.75157078,-2.85333084,-14.87398968,T01,0
6.219999999999999,622,-0.052,-1.01,-0.01,-1.6042823999999998,1.3178034,0.572958,86.73438204,-2.85906042,-14.85680094,T01,0
6.229999999999999,623,-0.052,-1.01,-0.009,-1.6615782,0.8594370000000001,0.8594370000000001,86.71719329999998,-2.86479,-14.85107136,T01,0
6.239999999999998,624,-0.057,-1.01,-0.002,-2.1199446,0.9167328,0.9740286,86.69427498,-2.87624916,-14.8396122,T01,0
6.249999999999999,625,-0.059,-1.009,-0.001,-2.9220858,1.7188740000000002,1.0313244,86.68281582,-2.8934379,-14.82242346,T01,0
6.259999999999999,626,-0.061,-1.005,-0.005,-3.2085648,1.9480572,0.8594370000000001,86.64843834,-2.89916748,-14.80523472,T01,0
6.269999999999999,627,-0.06,-1.006,-0.0069999999999999,-2.9793816000000004,1.3750992,0.572958,86.61406086000002,-2.90489706,-14.78804598,T01,0
6.279999999999999,628,-0.058,-1.011,-0.014,-3.0939732,0.8021411999999999,0.3437748,86.58541296,-2.91062664,-14.7823164,T01,0
6.289999999999999,629,-0.058,-1.011,-0.014,-2.6356068,0.5156622000000001,0.1718874,86.55676506,-2.91062664,-14.77658682,T01,0
6.299999999999999,630,-0.059,-1.012,-0.012,-2.4637194,0.8021411999999999,0.0,86.55676506,-2.91635622,-14.770857239999998,T01,0
6.309999999999999,631,-0.061,-1.011,-0.013,-2.4064236,1.432395,0.0,86.53384674,-2.91635622,-14.7536685,T01,0
6.319999999999999,632,-0.06,-1.005,-0.016,-2.4064236,1.2032118,-0.1145916,86.50519884,-2.91062664,-14.74220934,T01,0
6.329999999999999,633,-0.057,-1.0,-0.015,-2.2345362,0.7448454000000001,0.0,86.48228051999996,-2.91062664,-14.73647976,T01,0
6.339999999999999,634,-0.056,-0.998,-0.015,-2.1772404,0.3437748,0.0572958,86.4593622,-2.91062664,-14.73075018,T01,0
6.349999999999999,635,-0.053,-1.0,-0.018,-2.4637194,0.0572958,0.2291832,86.4593622,-2.91062664,-14.73647976,T01,0
6.359999999999999,636,-0.05,-1.003,-0.023,-2.578311,0.0572958,0.3437748,86.43071429999998,-2.91635622,-14.73647976,T01,0
6.369999999999999,637,-0.051,-1.002,-0.022,-2.3491278,-0.0572958,0.3437748,86.40779597999996,-2.91635622,-14.73647976,T01,0
6.379999999999999,638,-0.052,-1.002,-0.021,-1.8334656000000005,-0.286479,0.286479,86.39060724,-2.9220858,-14.73647976,T01,0
6.389999999999999,639,-0.054,-1.002,-0.021,-1.3178034,-0.1718874,0.0,86.37914808000002,-2.9220858,-14.74220934,T01,0
6.399999999999999,640,-0.056,-1.003,-0.02,-0.8021411999999999,-0.2291832,-0.2291832,86.43644388,-2.92781538,-14.74220934,T01,0
6.409999999999998,641,-0.059,-1.004,-0.017,-0.286479,-0.3437748,-0.572958,86.43644388,-2.9220858,-14.74793892,T01,0
6.419999999999999,642,-0.058,-1.007,-0.015,0.0,-0.4583664000000001,-0.6302538000000001,86.43644388,-2.91635622,-14.7536685,T01,0
6.429999999999999,643,-0.056,-1.009,-0.014,0.0,-0.6875496,-0.4583664000000001,86.43644388,-2.91062664,-14.75939808,T01,0
6.439999999999999,644,-0.055,-1.011,-0.014,-0.1718874,-0.8594370000000001,-0.2291832,86.43644388,-2.91062664,-14.770857239999998,T01,0
6.449999999999998,645,-0.054,-1.012,-0.017,-0.4583664000000001,-1.0313244,0.0,86.47655094000002,-2.90489706,-14.7823164,T01,0
6.459999999999999,646,-0.052,-1.01,-0.019,-0.6875496,-1.0886202,0.0572958,86.46509178,-2.91062664,-14.79377556,T01,0
6.469999999999999,647,-0.055,-1.007,-0.018,-0.9167328,-1.0313244,-0.0572958,86.4593622,-2.91062664,-14.80523472,T01,0
6.479999999999999,648,-0.055,-1.004,-0.02,-0.8594370000000001,-0.8021411999999999,-0.1718874,86.44790304,-2.90489706,-14.810964300000002,T01,0
6.489999999999998,649,-0.057,-1.003,-0.017,-0.5156622000000001,-0.6875496,-0.286479,86.44217346,-2.90489706,-14.82242346,T01,0
6.499999999999999,650,-0.058,-1.004,-0.017,-0.286479,-0.5156622000000001,-0.4010706,86.51092842,-2.90489706,-14.82815304,T01,0
6.509999999999999,651,-0.058,-1.004,-0.015,-0.1145916,-0.2291832,-0.4583664000000001,86.51092842,-2.89916748,-14.82815304,T01,0
6.519999999999999,652,-0.059,-1.008,-0.016,-0.0572958,0.0,-0.5156622000000001,86.51092842,-2.89916748,-14.83388262,T01,0
6.529999999999999,653,-0.056,-1.01,-0.011,-0.3437748,0.0,-0.6302538000000001,86.50519884,-2.88770832,-14.83388262,T01,0
6.539999999999999,654,-0.055,-1.01,-0.012,-1.0886202,-0.8594370000000001,-0.7448454000000001,86.49373968,-2.88197874,-14.8396122,T01,0
6.549999999999999,655,-0.051,-1.006,-0.017,-1.5469866,-0.8021411999999999,-0.6302538000000001,86.51092842,-2.87051958,-14.85107136,T01,0
6.559999999999999,656,-0.049,-1.005,-0.019,-1.2032118,-0.4010706,-0.2291832,86.49946926,-2.86479,-14.85680094,T01,0
6.569999999999999,657,-0.049,-1.001,-0.023,-0.9167328,0.1718874,0.1718874,86.48801010000004,-2.87051958,-14.85680094,T01,0
6.579999999999999,658,-0.051,-1.001,-0.019,-0.286479,1.0886202,0.6302538000000001,86.48801010000004,-2.87624916,-14.845341780000002,T01,0
6.589999999999999,659,-0.056,-1.002,-0.015,-0.1145916,2.2345362,1.0313244,86.48228051999996,-2.88197874,-14.82242346,T01,0
6.599999999999999,660,-0.058,-1.004,-0.012,-0.2291832,2.86479,1.2605076000000002,86.49946926,-2.89916748,-14.79377556,T01,0
6.609999999999999,661,-0.062,-1.008,-0.009,-0.6302538000000001,3.3231564,1.2605076000000002,86.49373968,-2.91062664,-14.75939808,T01,0
6.619999999999999,662,-0.061,-1.009,-0.012,-1.3178034,3.8961144,1.2032118,86.47655094000002,-2.9220858,-14.71929102,T01,0
6.629999999999999,663,-0.058,-1.011,-0.015,-1.3750992,3.9534102,1.2032118,86.4593622,-2.93354496,-14.67918396,T01,0
6.639999999999999,664,-0.056,-1.008,-0.016,-1.2605076000000002,3.7815228,1.145916,86.44217346,-2.94500412,-14.6390769,T01,0
6.649999999999999,665,-0.056,-1.007,-0.015,-1.0886202,3.6096354,0.9740286,86.44790304,-2.9564632800000004,-14.60469942,T01,0
6.659999999999998,666,-0.056,-1.009,-0.015,-0.8594370000000001,3.380452200000001,0.9167328,86.43644388,-2.96219286,-14.57032194,T01,0
6.669999999999999,667,-0.057,-1.009,-0.018,-0.8594370000000001,3.380452200000001,0.8594370000000001,86.42498472,-2.9736520200000003,-14.53594446,T01,0
6.679999999999999,668,-0.056,-1.008,-0.02,-0.6875496,3.2085648,0.8021411999999999,86.41352556000002,-2.9793816000000004,-14.501566980000002,T01,0
6.689999999999999,669,-0.054,-1.007,-0.019,-0.6302538000000001,2.86479,0.6302538000000001,86.40779597999996,-2.98511118,-14.47291908,T01,0
6.699999999999998,670,-0.053,-1.007,-0.017,-0.5156622000000001,2.5210152000000003,0.3437748,86.42498472,-2.9793816000000004,-14.45573034,T01,0
6.709999999999999,671,-0.048,-1.008,-0.017,-0.8021411999999999,2.4637194,0.286479,86.41352556000002,-2.98511118,-14.427082439999998,T01,0
6.719999999999999,672,-0.046,-1.007,-0.019,-1.2032118,2.0626488000000003,0.286479,86.40206640000002,-2.98511118,-14.4098937,T01,0
6.729999999999999,673,-0.047,-1.005,-0.017,-1.5469866,1.7188740000000002,0.1718874,86.38487766,-2.98511118,-14.38697538,T01,0
6.739999999999998,674,-0.051,-1.006,-0.016,-1.6615782,1.9480572,0.1145916,86.36195934,-2.99084076,-14.36978664,T01,0
6.749999999999999,675,-0.051,-1.007,-0.018,-1.8334656000000005,2.578311,0.0,86.36195934,-2.9793816000000004,-14.34686832,T01,0
6.759999999999999,676,-0.05,-1.008,-0.018,-1.8334656000000005,2.3491278,0.0,86.34477059999998,-2.9793816000000004,-14.32395,T01,0
6.769999999999999,677,-0.049,-1.009,-0.015,-1.8334656000000005,2.0053530000000004,0.0572958,86.32185228,-2.9793816000000004,-14.306761259999998,T01,0
6.779999999999999,678,-0.048,-1.009,-0.015,-2.2345362,2.1199446,0.3437748,86.29893396,-2.98511118,-14.28384294,T01,0
6.789999999999999,679,-0.047,-1.009,-0.017,-2.4064236,2.1772404,0.572958,86.27028606,-2.99084076,-14.26092462,T01,0
6.799999999999999,680,-0.048,-1.009,-0.018,-2.5210152000000003,2.291832,0.6302538000000001,86.2588269,-2.99084076,-14.2380063,T01,0
6.809999999999999,681,-0.05,-1.007,-0.019,-2.4064236,2.1199446,0.572958,86.23590858,-2.99084076,-14.22081756,T01,0
6.819999999999999,682,-0.052,-1.008,-0.017,-2.1772404,1.8907614,0.4583664000000001,86.21299026,-2.9965703400000003,-14.197899240000002,T01,0
6.829999999999999,683,-0.051,-1.012,-0.019,-2.2345362,1.7761698,0.4010706,86.19007194,-3.00229992,-14.180710500000002,T01,0
6.839999999999999,684,-0.05,-1.013,-0.019,-2.5210152000000003,0.9740286,0.2291832,86.16142404,-3.00229992,-14.17498092,T01,0
6.849999999999999,685,-0.048,-1.007,-0.021,-2.3491278,-0.1145916,0.1145916,86.17288319999999,-2.99084076,-14.180710500000002,T01,0
6.859999999999999,686,-0.046,-1.001,-0.02,-1.8334656000000005,-0.8594370000000001,0.0572958,86.15569446,-2.99084076,-14.19216966,T01,0
6.869999999999998,687,-0.049,-1.0,-0.02,-1.5469866,-1.2032118,0.1718874,86.13850572,-2.9965703400000003,-14.20362882,T01,0
6.879999999999999,688,-0.051,-1.003,-0.02,-1.3178034,-1.0886202,0.286479,86.12704656,-2.9965703400000003,-14.215087979999998,T01,0
6.889999999999999,689,-0.055,-1.006,-0.02,-1.3178034,-1.145916,0.2291832,86.11558740000002,-3.00229992,-14.22654714,T01,0
6.899999999999999,690,-0.058,-1.006,-0.022,-1.145916,-1.145916,0.2291832,86.13850572,-3.0080295,-14.2380063,T01,0
6.909999999999998,691,-0.06,-1.004,-0.023,-0.9167328,-1.0313244,0.1145916,86.13277614,-3.0080295,-14.24946546,T01,0
6.919999999999999,692,-0.061,-1.002,-0.024,-0.6875496,-0.8594370000000001,0.1145916,86.12704656,-3.0137590800000003,-14.25519504,T01,0
6.929999999999999,693,-0.061,-0.999,-0.019,-0.3437748,-0.4010706,0.0,86.12131698,-3.0137590800000003,-14.26092462,T01,0
6.939999999999999,694,-0.06,-1.002,-0.018,-0.1718874,-0.0572958,0.0,86.12131698,-3.0137590800000003,-14.26092462,T01,0
6.949999999999998,695,-0.058,-1.005,-0.016,-0.1718874,0.0,0.0572958,86.48801010000004,-3.03094782,-14.27811336,T01,0
6.959999999999999,696,-0.057,-1.009,-0.017,-0.1145916,-0.0572958,0.0572958,86.48801010000004,-3.03094782,-14.27811336,T01,0
6.969999999999999,697,-0.057,-1.01,-0.014,0.0,0.0,0.0572958,86.48801010000004,-3.03094782,-14.27811336,T01,0
6.979999999999999,698,-0.057,-1.01,-0.015,0.0572958,0.1718874,0.1145916,86.48801010000004,-3.03094782,-14.272383780000002,T01,0
6.989999999999998,699,-0.059,-1.008,-0.016,0.0572958,0.2291832,0.1145916,86.48801010000004,-3.0366774000000003,-14.272383780000002,T01,0
6.999999999999999,700,-0.06,-1.007,-0.016,-0.1145916,0.4010706,0.0572958,86.57968338,-3.04240698,-14.266654199999998,T01,0
7.009999999999999,701,-0.06,-1.005,-0.017,-0.1145916,0.572958,0.0572958,86.57968338,-3.04240698,-14.26092462,T01,0
7.019999999999999,702,-0.059,-1.005,-0.019,-0.2291832,0.572958,0.0,86.5739538,-3.04240698,-14.25519504,T01,0
7.029999999999999,703,-0.059,-1.005,-0.015,-0.2291832,0.7448454000000001,0.0,86.5739538,-3.04240698,-14.24946546,T01,0
7.039999999999999,704,-0.059,-1.007,-0.013,-0.5156622000000001,1.145916,0.0572958,86.56822422,-3.04240698,-14.2380063,T01,0
7.049999999999999,705,-0.059,-1.01,-0.013,-0.9167328,1.4896908000000002,0.0572958,86.58541296,-3.04813656,-14.22654714,T01,0
7.059999999999999,706,-0.056,-1.009,-0.016,-1.3750992,1.6042823999999998,0.1718874,86.5739538,-3.04813656,-14.2093584,T01,0
7.069999999999999,707,-0.055,-1.009,-0.016,-1.2605076000000002,1.4896908000000002,0.2291832,86.55676506,-3.04813656,-14.19216966,T01,0
7.079999999999998,708,-0.054,-1.008,-0.016,-1.2605076000000002,1.432395,0.4010706,86.5453059,-3.05386614,-14.180710500000002,T01,0
7.089999999999999,709,-0.054,-1.007,-0.019,-1.432395,1.432395,0.5156622000000001,86.52811716,-3.05959572,-14.16352176,T01,0
7.099999999999999,710,-0.056,-1.005,-0.021,-1.3178034,1.145916,0.6875496,86.53384674,-3.0653253000000005,-14.152062600000002,T01,0
7.109999999999999,711,-0.056,-1.004,-0.023,-1.2605076000000002,0.8594370000000001,0.572958,86.51665799999998,-3.07105488,-14.14633302,T01,0
7.119999999999998,712,-0.056,-1.0,-0.019,-0.8594370000000001,0.5156622000000001,0.572958,86.51092842,-3.07678446,-14.14060344,T01,0
7.129999999999999,713,-0.058,-1.003,-0.016,-0.5156622000000001,0.1718874,0.3437748,86.50519884,-3.07678446,-14.14060344,T01,0
7.139999999999999,714,-0.059,-1.005,-0.018,-0.572958,0.3437748,0.0572958,86.49946926,-3.0825140400000004,-14.13487386,T01,0
7.149999999999999,715,-0.061,-1.005,-0.017,-0.572958,0.6302538000000001,-0.0572958,86.53957632,-3.08824362,-14.12914428,T01,0
7.159999999999998,716,-0.062,-1.007,-0.014,-0.2291832,0.8594370000000001,-0.1145916,86.53957632,-3.08824362,-14.11768512,T01,0
7.169999999999999,717,-0.062,-1.01,-0.012,0.0,1.0313244,-0.1145916,86.53957632,-3.0825140400000004,-14.11195554,T01,0
7.179999999999999,718,-0.063,-1.01,-0.014,-0.1145916,1.6615782,0.0,86.53384674,-3.0825140400000004,-14.0947668,T01,0
7.189999999999999,719,-0.062,-1.009,-0.016,-0.3437748,1.8334656000000005,0.1145916,86.52811716,-3.0825140400000004,-14.07184848,T01,0
7.199999999999998,720,-0.06,-1.007,-0.016,-0.3437748,1.9480572,0.1718874,86.55676506,-3.08824362,-14.05465974,T01,0
7.209999999999999,721,-0.057,-1.005,-0.017,-0.286479,2.0053530000000004,0.2291832,86.55103548,-3.08824362,-14.037471000000002,T01,0
7.219999999999999,722,-0.054,-1.005,-0.016,-0.2291832,2.0626488000000003,0.1718874,86.5453059,-3.08824362,-14.01455268,T01,0
7.229999999999999,723,-0.053,-1.007,-0.018,-0.4010706,1.8907614,0.1718874,86.53957632,-3.0939732,-13.99736394,T01,0
7.239999999999998,724,-0.054,-1.005,-0.019,-0.5156622000000001,1.6042823999999998,0.0,86.53384674,-3.08824362,-13.980175199999998,T01,0
7.249999999999999,725,-0.056,-1.004,-0.018,-0.4010706,1.145916,-0.2291832,86.5739538,-3.0825140400000004,-13.97444562,T01,0
7.259999999999999,726,-0.057,-1.004,-0.016,-0.2291832,0.9167328,-0.3437748,86.56822422,-3.0825140400000004,-13.96298646,T01,0
7.269999999999999,727,-0.058,-1.005,-0.014,-0.2291832,1.145916,-0.4010706,86.56822422,-3.07678446,-13.951527300000002,T01,0
7.2799999999999985,728,-0.058,-1.006,-0.017,-0.4010706,1.432395,-0.286479,86.56249464,-3.07105488,-13.94006814,T01,0
7.289999999999998,729,-0.056,-1.007,-0.017,-0.286479,1.3750992,-0.1718874,86.55676506,-3.07105488,-13.922879400000005,T01,0
7.299999999999999,730,-0.055,-1.006,-0.016,-0.2291832,1.145916,0.0,86.61406086000002,-3.0653253000000005,-13.91714982,T01,0
7.309999999999999,731,-0.054,-1.005,-0.014,-0.286479,1.0313244,0.3437748,86.60833127999999,-3.0653253000000005,-13.911420239999998,T01,0
7.3199999999999985,732,-0.055,-1.004,-0.011,-0.3437748,0.9167328,0.6302538000000001,86.60260170000002,-3.07678446,-13.89996108,T01,0
7.329999999999998,733,-0.058,-1.007,-0.008,-0.4583664000000001,1.0313244,0.7448454000000001,86.59687212,-3.0825140400000004,-13.88850192,T01,0
7.339999999999999,734,-0.058,-1.01,-0.008,-0.8021411999999999,1.0313244,0.572958,86.59114253999998,-3.08824362,-13.87704276,T01,0
7.349999999999999,735,-0.057,-1.012,-0.01,-1.0313244,1.2032118,0.286479,86.61406086000002,-3.08824362,-13.8655836,T01,0
7.3599999999999985,736,-0.054,-1.014,-0.012,-1.2605076000000002,1.2605076000000002,0.1718874,86.59687212,-3.08824362,-13.85412444,T01,0
7.369999999999998,737,-0.053,-1.015,-0.016,-1.2605076000000002,1.0313244,0.1718874,86.58541296,-3.08824362,-13.84266528,T01,0
7.379999999999999,738,-0.054,-1.008,-0.017,-1.145916,0.5156622000000001,0.0572958,86.5739538,-3.08824362,-13.836935700000002,T01,0
7.389999999999999,739,-0.055,-1.002,-0.016,-0.9167328,0.1145916,-0.0572958,86.56249464,-3.08824362,-13.836935700000002,T01,0
7.399999999999999,740,-0.056,-0.999,-0.016,-1.0313244,0.4010706,-0.0572958,86.59687212,-3.0825140400000004,-13.836935700000002,T01,0
7.409999999999998,741,-0.057,-0.998,-0.016,-1.0313244,0.6875496,0.0,86.58541296,-3.0825140400000004,-13.83120612,T01,0
7.419999999999999,742,-0.056,-1.003,-0.016,-0.8021411999999999,0.8594370000000001,0.0,86.5739538,-3.0825140400000004,-13.82547654,T01,0
7.429999999999999,743,-0.055,-1.003,-0.018,-0.572958,1.0313244,0.1718874,86.56822422,-3.0825140400000004,-13.81401738,T01,0
7.439999999999999,744,-0.054,-1.003,-0.014,-0.1145916,0.8021411999999999,0.2291832,86.56822422,-3.08824362,-13.80255822,T01,0
7.449999999999998,745,-0.054,-1.007,-0.01,0.2291832,0.4010706,0.3437748,86.67708624000002,-3.07105488,-13.81401738,T01,0
7.459999999999999,746,-0.054,-1.008,-0.011,0.1718874,0.1718874,0.286479,86.67708624000002,-3.07678446,-13.8082878,T01,0
7.469999999999999,747,-0.054,-1.009,-0.012,0.0572958,-0.0572958,0.2291832,86.67708624000002,-3.07678446,-13.8082878,T01,0
7.479999999999999,748,-0.056,-1.01,-0.013,0.0,-0.2291832,0.0,86.67708624000002,-3.0825140400000004,-13.81401738,T01,0
7.489999999999998,749,-0.058,-1.011,-0.016,-0.1145916,-0.3437748,-0.2291832,86.67708624000002,-3.07678446,-13.81401738,T01,0
7.499999999999998,750,-0.057,-1.009,-0.017,-0.286479,0.0,-0.4583664000000001,86.73438204,-3.07105488,-13.81974696,T01,0
7.509999999999999,751,-0.057,-1.006,-0.017,-0.2291832,0.1145916,-0.4583664000000001,86.73438204,-3.07105488,-13.81974696,T01,0
7.519999999999999,752,-0.058,-1.004,-0.016,-0.0572958,0.1718874,-0.4583664000000001,86.73438204,-3.0653253000000005,-13.81401738,T01,0
7.5299999999999985,753,-0.059,-1.003,-0.015,-0.1145916,0.0572958,-0.3437748,86.73438204,-3.05959572,-13.81401738,T01,0
7.539999999999998,754,-0.057,-1.004,-0.016,-0.3437748,0.0572958,-0.286479,86.72865246,-3.05959572,-13.81401738,T01,0
7.549999999999999,755,-0.053,-1.005,-0.017,-0.286479,0.0,-0.2291832,86.82032574,-3.02521824,-13.83120612,T01,0
7.559999999999999,756,-0.054,-1.005,-0.014,-0.1145916,-0.1145916,-0.1145916,86.81459616,-3.02521824,-13.83120612,T01,0
7.5699999999999985,757,-0.06,-1.006,-0.013,0.0,-0.1718874,-0.0572958,86.81459616,-3.02521824,-13.836935700000002,T01,0
7.579999999999998,758,-0.059,-1.007,-0.012,-0.0572958,0.1718874,-0.286479,86.81459616,-3.01948866,-13.83120612,T01,0
7.589999999999999,759,-0.059,-1.007,-0.011,0.0,0.1718874,-0.286479,86.81459616,-3.01948866,-13.83120612,T01,0
7.599999999999999,760,-0.057,-1.008,-0.011,-0.1145916,0.1718874,-0.286479,86.90626943999996,-3.0137590800000003,-13.836935700000002,T01,0
7.6099999999999985,761,-0.056,-1.01,-0.012,-0.1718874,0.1718874,-0.2291832,86.90626943999996,-3.0080295,-13.83120612,T01,0
7.619999999999998,762,-0.055,-1.007,-0.012,-0.0572958,0.1718874,-0.0572958,86.90626943999996,-3.0080295,-13.83120612,T01,0
7.629999999999999,763,-0.056,-1.005,-0.012,-0.0572958,0.2291832,-0.1145916,86.90626943999996,-3.0080295,-13.83120612,T01,0
7.639999999999999,764,-0.056,-1.006,-0.01,-0.1145916,0.1718874,-0.0572958,86.90053986000002,-3.0080295,-13.82547654,T01,0
7.649999999999999,765,-0.056,-1.007,-0.01,-0.1718874,0.0,0.0,87.04950894,-3.0080295,-13.83120612,T01,0
7.659999999999998,766,-0.058,-1.008,-0.01,-0.3437748,0.1145916,0.0,87.04950894,-3.0080295,-13.83120612,T01,0
7.669999999999999,767,-0.059,-1.009,-0.012,-0.6875496,0.4583664000000001,0.0,87.03804978000002,-3.0080295,-13.82547654,T01,0
7.679999999999999,768,-0.06,-1.01,-0.013,-0.8594370000000001,0.9167328,0.0572958,87.03232019999999,-3.0080295,-13.81974696,T01,0
7.689999999999999,769,-0.06,-1.009,-0.012,-0.8594370000000001,1.2032118,0.1145916,87.02086104,-3.0137590800000003,-13.80255822,T01,0
7.699999999999998,770,-0.058,-1.008,-0.013,-0.9740286,1.4896908000000002,0.2291832,87.02659062000002,-3.0137590800000003,-13.79109906,T01,0
7.709999999999998,771,-0.057,-1.007,-0.017,-1.145916,1.6042823999999998,0.4010706,87.00940188,-3.01948866,-13.77391032,T01,0
7.719999999999999,772,-0.054,-1.006,-0.017,-0.9740286,1.4896908000000002,0.4583664000000001,86.99794272,-3.02521824,-13.75672158,T01,0
7.729999999999999,773,-0.053,-1.002,-0.015,-0.8594370000000001,1.2605076000000002,0.3437748,86.99221314,-3.02521824,-13.74526242,T01,0
7.739999999999998,774,-0.054,-1.003,-0.013,-0.8021411999999999,1.0313244,0.3437748,86.98075398,-3.03094782,-13.733803259999998,T01,0
7.749999999999998,775,-0.054,-1.005,-0.011,-0.6302538000000001,0.8021411999999999,0.286479,87.00940188,-3.02521824,-13.733803259999998,T01,0
7.759999999999999,776,-0.055,-1.006,-0.011,-0.8594370000000001,0.5156622000000001,0.2291832,86.99794272,-3.03094782,-13.72807368,T01,0
7.769999999999999,777,-0.055,-1.007,-0.011,-0.8594370000000001,0.572958,0.1145916,86.99221314,-3.03094782,-13.7223441,T01,0
7.7799999999999985,778,-0.058,-1.009,-0.009,-0.8594370000000001,0.4010706,0.0572958,86.98075398,-3.03094782,-13.716614520000002,T01,0
7.789999999999998,779,-0.058,-1.011,-0.011,-0.8021411999999999,0.572958,0.0,86.96929482,-3.03094782,-13.71088494,T01,0
7.799999999999999,780,-0.058,-1.013,-0.011,-0.9740286,0.6875496,0.0,86.99221314,-3.03094782,-13.70515536,T01,0
7.809999999999999,781,-0.057,-1.008,-0.013,-1.2032118,1.2605076000000002,0.1145916,86.98075398,-3.03094782,-13.6936962,T01,0
7.8199999999999985,782,-0.055,-1.003,-0.016,-1.145916,1.7188740000000002,0.286479,86.96356524000002,-3.0366774000000003,-13.67650746,T01,0
7.829999999999998,783,-0.053,-1.0,-0.013,-0.8021411999999999,1.3178034,0.3437748,86.95783566,-3.04240698,-13.659318719999998,T01,0
7.839999999999999,784,-0.052,-1.002,-0.01,-0.572958,0.8594370000000001,0.4010706,86.95210608,-3.04240698,-13.65358914,T01,0
7.849999999999999,785,-0.053,-1.004,-0.009,-0.9167328,0.6875496,0.3437748,86.97502440000002,-3.04240698,-13.64785956,T01,0
7.8599999999999985,786,-0.055,-1.005,-0.01,-1.145916,0.8021411999999999,0.286479,86.95783566,-3.04240698,-13.642129979999998,T01,0
7.869999999999998,787,-0.059,-1.009,-0.01,-1.0313244,0.9167328,0.286479,86.94637650000001,-3.04813656,-13.63067082,T01,0
7.879999999999999,788,-0.06,-1.013,-0.01,-1.0886202,1.0886202,0.1718874,86.93491734,-3.04813656,-13.61921166,T01,0
7.889999999999999,789,-0.061,-1.016,-0.01,-1.0886202,1.4896908000000002,0.0572958,86.92345818,-3.04813656,-13.6077525,T01,0
7.899999999999999,790,-0.057,-1.017,-0.013,-1.5469866,2.2345362,0.0,86.92345818,-3.04813656,-13.584834179999998,T01,0
7.909999999999998,791,-0.052,-1.011,-0.013,-1.7761698,2.1199446,0.2291832,86.90053986000002,-3.04813656,-13.56191586,T01,0
7.919999999999998,792,-0.05,-1.002,-0.016,-1.5469866,1.7188740000000002,0.286479,86.88335112,-3.05386614,-13.54472712,T01,0
7.929999999999999,793,-0.048,-0.998,-0.013,-1.3750992,1.432395,0.4583664000000001,86.87189196,-3.05959572,-13.53326796,T01,0
7.939999999999999,794,-0.048,-0.997,-0.009,-1.3178034,1.3178034,0.572958,86.85470322,-3.0653253000000005,-13.51607922,T01,0
7.949999999999998,795,-0.049,-1.001,-0.0069999999999999,-1.3178034,1.0886202,0.6302538000000001,86.86616238,-3.05959572,-13.51034964,T01,0
7.959999999999998,796,-0.053,-1.005,-0.01,-1.3750992,0.9740286,0.572958,86.84897364,-3.0653253000000005,-13.49889048,T01,0
7.969999999999999,797,-0.055,-1.009,-0.01,-1.2032118,0.7448454000000001,0.5156622000000001,86.83751448000002,-3.07105488,-13.4931609,T01,0
7.979999999999999,798,-0.057,-1.011,-0.01,-1.0313244,0.572958,0.4010706,86.82605532,-3.07678446,-13.487431320000002,T01,0
7.989999999999998,799,-0.058,-1.01,-0.011,-1.0886202,0.6875496,0.3437748,86.81459616,-3.07678446,-13.48170174,T01,0
7.999999999999998,800,-0.057,-1.009,-0.01,-1.0886202,0.7448454000000001,0.3437748,86.83751448000002,-3.07678446,-13.47597216,T01,0
8.01,801,-0.056,-1.009,-0.011,-1.145916,0.6875496,0.4010706,86.82032574,-3.0825140400000004,-13.47024258,T01,0
8.019999999999998,802,-0.056,-1.008,-0.012,-1.3750992,0.6875496,0.3437748,86.80886658,-3.0825140400000004,-13.464513,T01,0
8.03,803,-0.056,-1.008,-0.012,-1.432395,0.6875496,0.1718874,86.79167784,-3.08824362,-13.45305384,T01,0
8.04,804,-0.057,-1.008,-0.017,-1.5469866,0.9740286,0.0572958,86.7744891,-3.08824362,-13.447324259999998,T01,0
8.049999999999999,805,-0.057,-1.003,-0.016,-1.432395,1.0886202,0.0,86.78594826,-3.08824362,-13.4358651,T01,0
8.059999999999999,806,-0.06,-1.003,-0.013,-1.0313244,1.145916,0.0572958,86.7744891,-3.08824362,-13.42440594,T01,0
8.069999999999999,807,-0.06,-1.003,-0.017,-1.145916,1.3750992,0.0,86.76302994,-3.08824362,-13.412946780000002,T01,0
8.079999999999998,808,-0.057,-1.004,-0.016,-0.9740286,1.432395,0.0,86.75157078,-3.08824362,-13.39575804,T01,0
8.089999999999998,809,-0.058,-1.003,-0.016,-0.6875496,1.5469866,0.0572958,86.74011162,-3.08824362,-13.3785693,T01,0
8.099999999999998,810,-0.058,-1.004,-0.015,-0.4010706,1.8907614,0.1718874,86.76302994,-3.08824362,-13.361380559999995,T01,0
8.11,811,-0.058,-1.008,-0.012,-0.1145916,2.0053530000000004,0.1718874,86.75730036,-3.08824362,-13.34419182,T01,0
8.12,812,-0.058,-1.011,-0.013,-0.286479,2.0053530000000004,0.1145916,86.75730036,-3.08824362,-13.321273499999998,T01,0
8.129999999999999,813,-0.056,-1.011,-0.017,-0.5156622000000001,1.8907614,0.1145916,86.7458412,-3.0939732,-13.30408476,T01,0
8.139999999999999,814,-0.056,-1.008,-0.017,-0.6302538000000001,1.5469866,0.1718874,86.74011162,-3.0939732,-13.28689602,T01,0
8.149999999999999,815,-0.057,-1.004,-0.015,-0.4583664000000001,1.3750992,0.2291832,86.76302994,-3.0939732,-13.275436860000005,T01,0
8.159999999999998,816,-0.058,-1.004,-0.014,-0.286479,1.4896908000000002,0.2291832,86.76302994,-3.0939732,-13.263977700000002,T01,0
8.169999999999998,817,-0.058,-1.003,-0.014,-0.3437748,1.4896908000000002,0.1718874,86.75730036,-3.0997027800000003,-13.246788959999998,T01,0
8.179999999999998,818,-0.058,-1.005,-0.011,-0.3437748,1.432395,0.0572958,86.75157078,-3.0997027800000003,-13.22960022,T01,0
8.189999999999998,819,-0.059,-1.008,-0.01,-0.6302538000000001,1.4896908000000002,0.1145916,86.7458412,-3.0997027800000003,-13.21814106,T01,0
8.2,820,-0.062,-1.01,-0.013,-0.9167328,1.6042823999999998,0.1145916,86.76302994,-3.1054323600000004,-13.20095232,T01,0
8.209999999999999,821,-0.061,-1.012,-0.015,-1.145916,2.0053530000000004,0.1718874,86.7458412,-3.1054323600000004,-13.178034,T01,0
8.219999999999999,822,-0.06,-1.01,-0.017,-1.0886202,2.2345362,0.286479,86.73438204,-3.11116194,-13.15511568,T01,0
8.229999999999999,823,-0.058,-1.006,-0.015,-0.7448454000000001,2.0053530000000004,0.2291832,86.72292288,-3.11116194,-13.13792694,T01,0
8.239999999999998,824,-0.057,-1.005,-0.012,-0.6302538000000001,1.8334656000000005,0.286479,86.71719329999998,-3.11116194,-13.120738199999998,T01,0
8.249999999999998,825,-0.056,-1.004,-0.013,-0.6875496,1.5469866,0.2291832,86.74011162,-3.11116194,-13.10927904,T01,0
8.259999999999998,826,-0.055,-1.005,-0.014,-0.6875496,1.3178034,0.1718874,86.72865246,-3.11116194,-13.0920903,T01,0
8.269999999999998,827,-0.057,-1.007,-0.016,-0.7448454000000001,1.0886202,0.1145916,86.72292288,-3.11116194,-13.08063114,T01,0
8.28,828,-0.058,-1.007,-0.017,-0.7448454000000001,0.9740286,0.0572958,86.71146372000004,-3.11116194,-13.07490156,T01,0
8.29,829,-0.059,-1.009,-0.018,-0.8594370000000001,1.2605076000000002,0.0572958,86.70573413999998,-3.11689152,-13.05771282,T01,0
8.299999999999999,830,-0.059,-1.008,-0.016,-0.8021411999999999,1.3750992,0.1718874,86.72292288,-3.11689152,-13.04625366,T01,0
8.309999999999999,831,-0.059,-1.007,-0.015,-0.8594370000000001,1.432395,0.1145916,86.71146372000004,-3.11689152,-13.0347945,T01,0
8.319999999999999,832,-0.061,-1.007,-0.015,-1.0313244,1.3178034,0.1718874,86.70000456,-3.11689152,-13.01760576,T01,0
8.329999999999998,833,-0.061,-1.007,-0.011,-1.4896908000000002,1.432395,0.1145916,86.68281582,-3.1226211000000004,-13.0061466,T01,0
8.339999999999998,834,-0.061,-1.009,-0.01,-1.9480572,1.9480572,0.1145916,86.66562708000002,-3.1226211000000004,-12.98895786,T01,0
8.349999999999998,835,-0.061,-1.006,-0.013,-2.1772404,2.5210152000000003,0.0,86.65416791999998,-3.1226211000000004,-12.96030996,T01,0
8.359999999999998,836,-0.059,-1.003,-0.015,-1.9480572,2.4637194,0.0,86.63697918,-3.1226211000000004,-12.93739164,T01,0
8.37,837,-0.059,-1.003,-0.015,-1.3750992,1.7761698,0.1145916,86.61979044,-3.1226211000000004,-12.920202899999998,T01,0
8.379999999999999,838,-0.059,-1.003,-0.017,-1.3178034,1.6615782,0.4010706,86.60260170000002,-3.12835068,-12.903014159999998,T01,0
8.389999999999999,839,-0.06,-1.005,-0.017,-1.0886202,1.432395,0.4583664000000001,86.59114253999998,-3.13408026,-12.88582542,T01,0
8.399999999999999,840,-0.064,-1.011,-0.014,-0.8021411999999999,1.0886202,0.4583664000000001,86.61406086000002,-3.14553942,-12.87436626,T01,0
8.409999999999998,841,-0.066,-1.015,-0.017,-0.9740286,1.0886202,0.286479,86.60260170000002,-3.14553942,-12.8629071,T01,0
8.419999999999998,842,-0.065,-1.015,-0.018,-1.2032118,1.6042823999999998,0.1145916,86.59114253999998,-3.14553942,-12.84571836,T01,0
8.429999999999998,843,-0.064,-1.013,-0.02,-1.6042823999999998,2.3491278,0.1145916,86.5739538,-3.14553942,-12.82280004,T01,0
8.439999999999998,844,-0.061,-1.009,-0.024,-1.8334656000000005,2.6929026,0.1145916,86.55103548,-3.151269,-12.79988172,T01,0
8.45,845,-0.059,-1.003,-0.025,-1.4896908000000002,2.4637194,0.1145916,86.5453059,-3.151269,-12.7769634,T01,0
8.459999999999999,846,-0.057,-0.994,-0.024,-0.9740286,2.0626488000000003,0.0572958,86.53384674,-3.151269,-12.75404508,T01,0
8.469999999999999,847,-0.058,-0.994,-0.017,-0.7448454000000001,1.7761698,0.0572958,86.52238758000001,-3.151269,-12.73685634,T01,0
8.479999999999999,848,-0.058,-0.998,-0.017,-0.7448454000000001,1.6615782,0.1145916,86.51665799999998,-3.151269,-12.7196676,T01,0
8.489999999999998,849,-0.057,-1.003,-0.017,-0.9167328,1.7188740000000002,0.1718874,86.50519884,-3.151269,-12.70247886,T01,0
8.499999999999998,850,-0.056,-1.006,-0.019,-0.9167328,1.6615782,0.4010706,86.51665799999998,-3.151269,-12.691019699999998,T01,0
8.509999999999998,851,-0.058,-1.008,-0.022,-0.7448454000000001,1.3750992,0.3437748,86.51092842,-3.15699858,-12.67383096,T01,0
8.519999999999998,852,-0.058,-1.007,-0.023,-0.4010706,1.145916,0.4583664000000001,86.50519884,-3.1627281600000003,-12.6623718,T01,0
8.53,853,-0.059,-1.005,-0.021,-0.1145916,0.9167328,0.286479,86.49946926,-3.1627281600000003,-12.65091264,T01,0
8.54,854,-0.062,-1.005,-0.019,-0.0572958,0.7448454000000001,0.0,86.49946926,-3.1627281600000003,-12.64518306,T01,0
8.549999999999999,855,-0.06,-1.005,-0.019,0.0,0.572958,-0.1145916,86.58541296,-3.1627281600000003,-12.64518306,T01,0
8.559999999999999,856,-0.061,-1.005,-0.014,0.0,0.286479,-0.286479,86.58541296,-3.1627281600000003,-12.63945348,T01,0
8.569999999999999,857,-0.06,-1.006,-0.013,0.1145916,0.1145916,-0.3437748,86.59114253999998,-3.15699858,-12.63945348,T01,0
8.579999999999998,858,-0.06,-1.007,-0.013,0.1145916,-0.0572958,-0.286479,86.59114253999998,-3.151269,-12.63945348,T01,0
8.589999999999998,859,-0.061,-1.008,-0.01,0.0,-0.286479,-0.286479,86.59114253999998,-3.151269,-12.64518306,T01,0
8.599999999999998,860,-0.064,-1.009,-0.011,-0.1718874,-0.1718874,-0.4010706,86.67135666,-3.1627281600000003,-12.64518306,T01,0
8.609999999999998,861,-0.066,-1.009,-0.012,-0.4583664000000001,0.2291832,-0.4010706,86.66562708000002,-3.1627281600000003,-12.63945348,T01,0
8.62,862,-0.066,-1.009,-0.014,-0.5156622000000001,0.6302538000000001,-0.3437748,86.6598975,-3.15699858,-12.6337239,T01,0
8.629999999999999,863,-0.066,-1.009,-0.014,-0.572958,0.9167328,-0.286479,86.65416791999998,-3.151269,-12.62799432,T01,0
8.639999999999999,864,-0.065,-1.007,-0.016,-0.6875496,1.2032118,-0.286479,86.64843834,-3.151269,-12.61653516,T01,0
8.649999999999999,865,-0.061,-1.004,-0.017,-0.8021411999999999,1.432395,-0.286479,86.6598975,-3.14553942,-12.59934642,T01,0
8.659999999999998,866,-0.058,-1.002,-0.019,-0.6875496,1.6042823999999998,-0.2291832,86.65416791999998,-3.14553942,-12.58788726,T01,0
8.669999999999998,867,-0.054,-1.001,-0.019,-0.572958,1.6615782,-0.2291832,86.64843834,-3.1398098400000003,-12.57069852,T01,0
8.679999999999998,868,-0.055,-1.0,-0.019,-0.286479,1.6042823999999998,-0.1145916,86.64270875999998,-3.1398098400000003,-12.55350978,T01,0
8.689999999999998,869,-0.057,-1.001,-0.016,0.0,1.432395,0.0,86.64270875999998,-3.1398098400000003,-12.53632104,T01,0
8.7,870,-0.06,-1.003,-0.013,0.3437748,1.3178034,0.1145916,86.68854540000002,-3.1398098400000003,-12.52486188,T01,0
8.709999999999999,871,-0.06,-1.006,-0.011,0.286479,1.3750992,0.286479,86.68854540000002,-3.14553942,-12.51340272,T01,0
8.719999999999999,872,-0.062,-1.009,-0.01,0.0572958,1.4896908000000002,0.3437748,86.68854540000002,-3.14553942,-12.49621398,T01,0
8.729999999999999,873,-0.061,-1.01,-0.011,-0.1145916,1.5469866,0.4010706,86.68854540000002,-3.151269,-12.48475482,T01,0
8.739999999999998,874,-0.059,-1.013,-0.013,-0.1145916,1.432395,0.286479,86.68854540000002,-3.151269,-12.46756608,T01,0
8.749999999999998,875,-0.057,-1.009,-0.014,-0.2291832,1.3178034,0.2291832,86.72292288,-3.151269,-12.45610692,T01,0
8.759999999999998,876,-0.054,-1.009,-0.011,0.0,0.9740286,0.286479,86.72292288,-3.151269,-12.45037734,T01,0
8.769999999999998,877,-0.055,-1.006,-0.013,-0.2291832,0.9740286,0.1145916,86.71719329999998,-3.151269,-12.438918179999998,T01,0
8.779999999999998,878,-0.056,-1.005,-0.014,-0.286479,1.145916,0.0572958,86.71719329999998,-3.151269,-12.42745902,T01,0
8.79,879,-0.058,-1.005,-0.014,-0.1145916,1.2032118,0.0,86.71146372000004,-3.151269,-12.41599986,T01,0
8.799999999999999,880,-0.06,-1.006,-0.013,-0.0572958,1.2032118,0.0,86.76302994,-3.15699858,-12.404540699999998,T01,0
8.809999999999999,881,-0.063,-1.008,-0.013,-0.1145916,1.432395,0.0,86.76302994,-3.15699858,-12.38735196,T01,0
8.819999999999999,882,-0.061,-1.008,-0.014,-0.1145916,1.7761698,0.0,86.75730036,-3.15699858,-12.370163219999998,T01,0
8.829999999999998,883,-0.061,-1.009,-0.012,-0.1145916,1.9480572,0.1145916,86.75730036,-3.15699858,-12.35297448,T01,0
8.839999999999998,884,-0.057,-1.009,-0.014,-0.4010706,2.0626488000000003,0.1145916,86.75157078,-3.15699858,-12.330056160000002,T01,0
8.849999999999998,885,-0.053,-1.005,-0.014,-0.572958,1.8334656000000005,0.2291832,86.76875952,-3.151269,-12.318597,T01,0
8.859999999999998,886,-0.051,-1.005,-0.014,-0.5156622000000001,1.3178034,0.1718874,86.76302994,-3.151269,-12.30140826,T01,0
8.87,887,-0.051,-1.006,-0.017,-0.6302538000000001,0.8594370000000001,0.0,86.75730036,-3.151269,-12.295678679999998,T01,0
8.879999999999999,888,-0.051,-1.006,-0.019,-0.6875496,0.9740286,-0.0572958,86.7458412,-3.151269,-12.28421952,T01,0
8.889999999999999,889,-0.055,-1.006,-0.019,-0.5156622000000001,0.9167328,-0.1145916,86.74011162,-3.151269,-12.27276036,T01,0
8.899999999999999,890,-0.058,-1.004,-0.019,-0.2291832,0.6875496,-0.1718874,86.79167784,-3.14553942,-12.27276036,T01,0
8.909999999999998,891,-0.059,-1.003,-0.014,0.0572958,0.6875496,-0.3437748,86.79167784,-3.1398098400000003,-12.26703078,T01,0
8.919999999999998,892,-0.058,-1.004,-0.014,0.0,0.8021411999999999,-0.4010706,86.79167784,-3.1398098400000003,-12.25557162,T01,0
8.929999999999998,893,-0.057,-1.009,-0.01,0.1718874,0.7448454000000001,-0.4010706,86.79740741999998,-3.13408026,-12.24984204,T01,0
8.939999999999998,894,-0.055,-1.013,-0.01,-0.0572958,0.9167328,-0.1145916,86.79167784,-3.13408026,-12.23838288,T01,0
8.95,895,-0.054,-1.014,-0.012,-0.5156622000000001,1.2032118,0.0572958,86.82605532,-3.1226211000000004,-12.2326533,T01,0
8.959999999999999,896,-0.055,-1.011,-0.012,-0.8594370000000001,1.2032118,0.1718874,86.81459616,-3.1226211000000004,-12.22119414,T01,0
8.969999999999999,897,-0.053,-1.008,-0.012,-0.8021411999999999,1.0313244,0.2291832,86.80313699999998,-3.12835068,-12.20973498,T01,0
8.979999999999999,898,-0.051,-1.007,-0.015,-0.6302538000000001,0.6302538000000001,0.2291832,86.79740741999998,-3.12835068,-12.2040054,T01,0
8.989999999999998,899,-0.051,-1.005,-0.014,-0.5156622000000001,0.0,0.0,86.79167784,-3.12835068,-12.2040054,T01,0
8.999999999999998,900,-0.056,-1.004,-0.01,-0.4010706,0.0,-0.1718874,86.88908070000002,-3.1226211000000004,-12.20973498,T01,0
9.009999999999998,901,-0.06,-1.005,-0.008,-0.6875496,0.5156622000000001,-0.286479,86.87762153999998,-3.11689152,-12.20973498,T01,0
9.019999999999998,902,-0.062,-1.004,-0.0069999999999999,-1.0313244,1.145916,-0.4583664000000001,86.86616238,-3.11689152,-12.19827582,T01,0
9.029999999999998,903,-0.062,-1.005,-0.009,-0.9740286,1.4896908000000002,-0.4583664000000001,86.85470322,-3.11116194,-12.18108708,T01,0
9.04,904,-0.059,-1.006,-0.013,-0.8021411999999999,1.5469866,-0.4583664000000001,86.84897364,-3.1054323600000004,-12.16389834,T01,0
9.05,905,-0.055,-1.007,-0.015,-0.572958,1.432395,-0.286479,86.86616238,-3.0939732,-12.15816876,T01,0
9.06,906,-0.051,-1.006,-0.016,-0.286479,1.2032118,-0.1718874,86.8604328,-3.08824362,-12.1467096,T01,0
9.07,907,-0.05,-1.007,-0.013,-0.1718874,0.8594370000000001,0.0,86.8604328,-3.08824362,-12.135250439999998,T01,0
9.079999999999998,908,-0.054,-1.008,-0.012,-0.286479,0.7448454000000001,0.0572958,86.85470322,-3.08824362,-12.12952086,T01,0
9.089999999999998,909,-0.057,-1.008,-0.013,-0.4583664000000001,0.9740286,0.0572958,86.84897364,-3.0939732,-12.118061700000002,T01,0
9.099999999999998,910,-0.058,-1.007,-0.013,-0.4010706,1.145916,0.0,86.88335112,-3.0939732,-12.10660254,T01,0
9.109999999999998,911,-0.059,-1.003,-0.013,-0.3437748,1.3750992,-0.0572958,86.87762153999998,-3.0939732,-12.09514338,T01,0
9.12,912,-0.059,-1.001,-0.009,-0.1718874,1.3178034,-0.0572958,86.87762153999998,-3.08824362,-12.08368422,T01,0
9.13,913,-0.058,-1.003,-0.0069999999999999,-0.1145916,1.145916,-0.0572958,86.87189196,-3.08824362,-12.07222506,T01,0
9.14,914,-0.056,-1.003,-0.008,-0.3437748,1.0313244,-0.0572958,86.86616238,-3.08824362,-12.0607659,T01,0
9.15,915,-0.056,-1.005,-0.006,-0.286479,0.8021411999999999,0.1145916,86.93491734,-3.0825140400000004,-12.05503632,T01,0
9.159999999999998,916,-0.056,-1.007,-0.004,-0.4010706,0.572958,0.1145916,86.92918776,-3.0825140400000004,-12.049306740000002,T01,0
9.169999999999998,917,-0.058,-1.008,-0.006,-0.5156622000000001,0.4010706,0.0,86.92345818,-3.0825140400000004,-12.049306740000002,T01,0
9.179999999999998,918,-0.061,-1.01,-0.0069999999999999,-0.5156622000000001,0.4010706,-0.1145916,86.91772859999998,-3.0825140400000004,-12.04357716,T01,0
9.189999999999998,919,-0.061,-1.01,-0.008,-0.6875496,0.6302538000000001,-0.0572958,86.90626943999996,-3.0825140400000004,-12.03784758,T01,0
9.199999999999998,920,-0.062,-1.007,-0.0069999999999999,-0.572958,0.9167328,-0.0572958,86.95210608,-3.08824362,-12.02638842,T01,0
9.21,921,-0.061,-1.004,-0.0069999999999999,-0.3437748,1.145916,0.0,86.95210608,-3.08824362,-12.01492926,T01,0
9.22,922,-0.062,-1.002,-0.006,-0.286479,1.3178034,0.0572958,86.94637650000001,-3.08824362,-12.0034701,T01,0
9.23,923,-0.062,-1.001,-0.005,-0.286479,1.5469866,0.0,86.94064691999998,-3.08824362,-11.98628136,T01,0
9.239999999999998,924,-0.061,-1.002,-0.006,-0.286479,1.6615782,-0.1145916,86.93491734,-3.08824362,-11.96909262,T01,0
9.249999999999998,925,-0.059,-1.003,-0.004,-0.286479,1.9480572,-0.1718874,86.97502440000002,-3.0825140400000004,-11.95190388,T01,0
9.259999999999998,926,-0.06,-1.006,-0.002,-0.2291832,2.1772404,-0.0572958,86.96929482,-3.0825140400000004,-11.92898556,T01,0
9.269999999999998,927,-0.058,-1.01,-0.004,-0.1718874,2.1772404,0.0,86.96356524000002,-3.0825140400000004,-11.90606724,T01,0
9.279999999999998,928,-0.059,-1.009,-0.004,-0.4583664000000001,2.1772404,0.1145916,86.95783566,-3.0825140400000004,-11.8888785,T01,0
9.29,929,-0.058,-1.008,-0.003,-0.4583664000000001,2.1772404,0.2291832,86.95210608,-3.08824362,-11.86596018,T01,0
9.3,930,-0.058,-1.008,-0.004,-0.6302538000000001,2.4637194,0.0572958,86.96929482,-3.08824362,-11.84304186,T01,0
9.31,931,-0.058,-1.008,-0.008,-0.9167328,2.5210152000000003,0.0,86.95783566,-3.08824362,-11.81439396,T01,0
9.32,932,-0.056,-1.006,-0.008,-0.9167328,2.291832,-0.1145916,86.94637650000001,-3.0825140400000004,-11.79720522,T01,0
9.329999999999998,933,-0.055,-1.006,-0.006,-0.8021411999999999,2.0626488000000003,-0.0572958,86.93491734,-3.0825140400000004,-11.774286900000002,T01,0
9.339999999999998,934,-0.054,-1.007,-0.005,-0.8594370000000001,1.9480572,-0.0572958,86.92918776,-3.0825140400000004,-11.75709816,T01,0
9.349999999999998,935,-0.053,-1.007,-0.009,-1.0313244,1.8334656000000005,0.0,86.94064691999998,-3.07105488,-11.73990942,T01,0
9.359999999999998,936,-0.051,-1.007,-0.01,-0.9167328,1.4896908000000002,0.0,86.92918776,-3.07678446,-11.722720679999998,T01,0
9.37,937,-0.052,-1.006,-0.01,-0.8594370000000001,1.0313244,0.0572958,86.91772859999998,-3.07678446,-11.71126152,T01,0
9.38,938,-0.052,-1.007,-0.011,-0.8594370000000001,0.8021411999999999,0.0,86.90626943999996,-3.07678446,-11.70553194,T01,0
9.39,939,-0.054,-1.009,-0.01,-0.8594370000000001,0.5156622000000001,0.0,86.90053986000002,-3.07105488,-11.699802359999998,T01,0
9.4,940,-0.053,-1.009,-0.011,-0.9740286,0.2291832,-0.0572958,86.92918776,-3.0653253000000005,-11.70553194,T01,0
9.409999999999998,941,-0.055,-1.007,-0.013,-1.3178034,0.5156622000000001,-0.1145916,86.91772859999998,-3.05959572,-11.699802359999998,T01,0
9.419999999999998,942,-0.056,-1.006,-0.013,-1.2605076000000002,0.5156622000000001,-0.1718874,86.90626943999996,-3.05959572,-11.69407278,T01,0
9.429999999999998,943,-0.058,-1.004,-0.014,-1.0886202,0.1718874,-0.286479,86.89481028,-3.05386614,-11.69407278,T01,0
9.439999999999998,944,-0.056,-1.002,-0.01,-1.0886202,0.286479,-0.286479,86.88335112,-3.05386614,-11.688343199999998,T01,0
9.449999999999998,945,-0.056,-1.002,-0.01,-1.145916,0.1718874,-0.3437748,86.92345818,-3.04813656,-11.69407278,T01,0
9.46,946,-0.057,-1.009,-0.008,-1.0886202,0.0,-0.4010706,86.91199902000002,-3.04240698,-11.69407278,T01,0
9.47,947,-0.059,-1.015,-0.008,-1.3750992,0.0,-0.3437748,86.89481028,-3.0366774000000003,-11.69407278,T01,0
9.48,948,-0.061,-1.017,-0.0069999999999999,-1.8334656000000005,0.6302538000000001,-0.2291832,86.87762153999998,-3.0366774000000003,-11.688343199999998,T01,0
9.489999999999998,949,-0.062,-1.014,-0.009,-2.1199446,1.432395,-0.0572958,86.85470322,-3.0366774000000003,-11.67115446,T01,0
9.499999999999998,950,-0.059,-1.009,-0.011,-2.3491278,1.8334656000000005,0.0,86.84324405999998,-3.0366774000000003,-11.65396572,T01,0
9.509999999999998,951,-0.055,-1.004,-0.013,-2.2345362,1.7188740000000002,0.0,86.82032574,-3.0366774000000003,-11.63677698,T01,0
9.519999999999998,952,-0.05,-1.001,-0.01,-1.9480572,1.0886202,-0.0572958,86.80313699999998,-3.0366774000000003,-11.62531782,T01,0
9.529999999999998,953,-0.051,-1.003,-0.005,-1.6615782,0.7448454000000001,-0.1718874,86.78021868,-3.03094782,-11.61958824,T01,0
9.54,954,-0.054,-1.006,-0.004,-1.8334656000000005,0.8021411999999999,-0.1718874,86.76302994,-3.03094782,-11.613858660000002,T01,0
9.55,955,-0.058,-1.008,-0.009,-2.1199446,0.9740286,-0.2291832,86.76302994,-3.03094782,-11.6023995,T01,0
9.56,956,-0.06,-1.007,-0.013,-2.3491278,1.145916,-0.2291832,86.74011162,-3.02521824,-11.59094034,T01,0
9.57,957,-0.058,-1.006,-0.012,-2.0053530000000004,0.8021411999999999,-0.3437748,86.71719329999998,-3.02521824,-11.58521076,T01,0
9.579999999999998,958,-0.053,-1.006,-0.013,-1.7188740000000002,0.3437748,-0.2291832,86.70000456,-3.01948866,-11.579481179999998,T01,0
9.589999999999998,959,-0.049,-1.006,-0.016,-1.7188740000000002,0.0,-0.1145916,86.68281582,-3.01948866,-11.579481179999998,T01,0
9.599999999999998,960,-0.048,-1.005,-0.016,-1.6042823999999998,-0.3437748,0.0,86.70000456,-3.00229992,-11.59094034,T01,0
9.609999999999998,961,-0.05,-1.004,-0.013,-1.4896908000000002,-0.4010706,0.0572958,86.68281582,-3.00229992,-11.59666992,T01,0
