TimeStamp(s),FrameCounter,AccX,AccY,AccZ,GyrX,GyrY,GyrZ,EulerX,EulerY,EulerZ,Description,FALL
0.01,1,-0.059,-1.007,-0.05,-3.6096354,-7.161975,0.8594370000000001,87.92613467999998,-3.0939732,-53.124665760000006,T02,0
0.02,2,-0.051,-1.002,-0.06,-5.3858052,-4.6409598,0.8594370000000001,87.87456846,-3.0997027800000003,-53.1705024,T02,0
0.03,3,-0.0579999999999999,-0.999,-0.066,-5.5003968,-4.8128472,0.9167328,87.82300224,-3.11116194,-53.22206862,T02,0
0.04,4,-0.062,-0.999,-0.07,-5.5003968,-4.3544808,0.9740286,87.77143602000002,-3.1226211000000004,-53.26217568,T02,0
0.05,5,-0.061,-0.999,-0.076,-5.443101,-3.8388186,1.145916,87.68549232000002,-3.1398098400000003,-53.29082358000001,T02,0
0.06,6,-0.065,-1.003,-0.065,-4.9274388,-2.578311,1.432395,87.6339261,-3.151269,-53.31947147999999,T02,0
0.0699999999999999,7,-0.059,-1.01,-0.063,-5.2139178,-0.2291832000000001,1.6042823999999998,87.58235988,-3.16845774,-53.31947147999999,T02,0
0.08,8,-0.057,-1.015,-0.077,-6.016058999999999,0.8021411999999999,1.4896908000000002,87.5193345,-3.18564648,-53.3137419,T02,0
0.09,9,-0.055,-1.008,-0.096,-7.0473834,0.8594370000000001,1.145916,87.45057954,-3.19710564,-53.30228274000001,T02,0
0.0999999999999999,10,-0.047,-0.997,-0.105,-6.4744254,0.0,1.0886202,87.32452878000002,-3.19710564,-53.27936442,T02,0
0.11,11,-0.045,-0.993,-0.1,-5.6149884000000005,0.286479,1.145916,87.26723297999996,-3.2085648000000004,-53.27936442,T02,0
0.12,12,-0.043,-0.993,-0.102,-6.0733548,0.572958,1.145916,87.20420759999998,-3.22002396,-53.27363484,T02,0
0.13,13,-0.044,-0.984,-0.118,-6.6463128000000005,0.0572958,1.2032118,87.13545264000004,-3.2372127,-53.27363484,T02,0
0.14,14,-0.037,-0.987,-0.1119999999999999,-6.130650599999999,-0.5156622000000001,1.3178034,87.07242726,-3.2486718599999995,-53.27936442,T02,0
0.15,15,-0.035,-1.002,-0.1009999999999999,-8.021412000000002,-1.3750992,1.3750992,86.96356524000002,-3.25440144,-53.27936442,T02,0
0.16,16,-0.04,-1.004,-0.095,-9.3965112,-2.4064236,1.145916,86.87189196,-3.2658606,-53.30801232,T02,0
0.17,17,-0.034,-1.006,-0.098,-8.651665800000002,-2.9793816000000004,1.2032118,86.78594826,-3.28304934,-53.33666022,T02,0
0.18,18,-0.026,-1.021,-0.093,-7.448453999999999,-3.8388186,1.8907614,86.71146372000004,-3.30023808,-53.3710377,T02,0
0.19,19,-0.0279999999999999,-1.033,-0.084,-7.9641161999999985,-4.2398892,2.4637194,86.63124959999998,-3.32888598,-53.41687434000001,T02,0
0.2,20,-0.034,-1.04,-0.075,-9.6829902,-4.010706000000001,2.578311,86.52811716,-3.34607472,-53.45125182,T02,0
0.21,21,-0.035,-1.033,-0.0819999999999999,-11.172681,-4.297185,2.291832,86.41352556000002,-3.37472262,-53.49135888000001,T02,0
0.22,22,-0.037,-1.02,-0.094,-11.2872726,-5.443101,1.8907614,86.30466354,-3.3919113599999995,-53.54865468000001,T02,0
0.23,23,-0.035,-1.008,-0.1,-10.1986524,-6.2452422,1.6615782,86.20726068,-3.4148296799999995,-53.61168005999999,T02,0
0.24,24,-0.034,-1.005,-0.096,-9.6256944,-6.3598338,1.145916,86.10985782,-3.42628884,-53.67470544,T02,0
0.25,25,-0.039,-1.013,-0.085,-10.0840608,-6.3598338,0.4583664000000001,86.0009958,-3.43201842,-53.73200124,T02,0
0.26,26,-0.049,-1.009,-0.088,-11.4018642,-6.0733548,-0.1718874,85.89213378,-3.43201842,-53.79502662,T02,0
0.27,27,-0.05,-1.005,-0.091,-12.3758928,-5.443101,-0.4583664000000001,85.77181259999998,-3.43201842,-53.85232241999999,T02,0
0.28,28,-0.047,-0.999,-0.104,-12.9488508,-5.5003968,-0.6302538000000001,85.64003226,-3.42628884,-53.90961822000001,T02,0
0.29,29,-0.046,-0.991,-0.109,-13.0634424,-5.7868758000000025,-0.5156622000000001,85.5139815,-3.42628884,-53.96691402,T02,0
0.3,30,-0.042,-0.988,-0.092,-12.9488508,-5.7868758000000025,-0.2291832000000001,85.37647158,-3.42055926,-54.02420982,T02,0
0.31,31,-0.038,-0.997,-0.077,-13.3499214,-7.1046792000000005,-0.1718874,85.25042082,-3.42628884,-54.09296478,T02,0
0.32,32,-0.0409999999999999,-1.008,-0.069,-15.2979786,-8.880849000000003,-0.286479,85.09572216000002,-3.42628884,-54.18463806000001,T02,0
0.33,33,-0.047,-1.015,-0.075,-18.048177,-9.568398599999998,-0.5156622000000001,84.92383476,-3.42628884,-54.28204092,T02,0
0.34,34,-0.051,-1.015,-0.088,-20.5118964,-8.9954406,-0.4010705999999999,84.71756988,-3.43201842,-54.37371420000001,T02,0
0.35,35,-0.045,-1.008,-0.106,-21.9442914,-9.1100322,-0.2291832000000001,84.49411626,-3.43201842,-54.46538748,T02,0
0.36,36,-0.04,-0.994,-0.134,-22.5745452,-10.4278356,-0.1145916,84.27639222,-3.44347758,-54.56851991999999,T02,0
0.37,37,-0.05,-0.985,-0.144,-21.8869956,-12.318597,0.0,84.06439776,-3.45493674,-54.69457067999999,T02,0
0.38,38,-0.057,-0.972,-0.141,-21.7151082,-14.266654199999998,-0.0572958,83.85240329999998,-3.4663959,-54.83781018,T02,0
0.39,39,-0.0579999999999999,-0.949,-0.136,-22.5745452,-16.501190400000002,-0.286479,83.63467926,-3.47785506,-55.00396800000001,T02,0
0.4,40,-0.048,-0.913,-0.131,-23.8923486,-20.2254174,-0.8021411999999999,83.39976648,-3.48358464,-55.20450329999999,T02,0
0.41,41,-0.036,-0.883,-0.128,-25.3820394,-24.637194,-1.8907614,83.15912412,-3.48931422,-55.45660482000001,T02,0
0.42,42,-0.04,-0.866,-0.125,-27.788463,-29.1635622,-3.8388186,82.90129302,-3.48358464,-55.7488134,T02,0
0.43,43,-0.047,-0.858,-0.124,-28.5906042,-30.5386614,-6.417129599999999,82.63200276,-3.4492071599999994,-56.05821072,T02,0
0.44,44,-0.055,-0.866,-0.134,-28.3041252,-30.4240698,-9.3965112,82.36844208,-3.3919113599999995,-56.37333762000001,T02,0
0.45,45,-0.07,-0.892,-0.131,-26.5852512,-29.9084076,-12.261301199999998,82.12207014,-3.3059676599999994,-56.68846452,T02,0
0.46,46,-0.091,-0.931,-0.126,-24.0069402,-29.220858000000003,-14.2093584,81.89861652,-3.20283522,-56.99786184000001,T02,0
0.47,47,-0.105,-0.993,-0.1159999999999999,-21.772404,-27.5592798,-15.4125702,81.69235164,-3.0825140400000004,-57.290070420000006,T02,0
0.48,48,-0.104,-1.054,-0.1119999999999999,-21.02755860000001,-25.2674478,-15.9282324,81.49754592000002,-2.9564632800000004,-57.56509026,T02,0
0.49,49,-0.113,-1.099,-0.125,-21.02755860000001,-23.9496444,-16.042824000000003,81.30274019999997,-2.83041252,-57.82865094,T02,0
0.5,50,-0.1169999999999999,-1.099,-0.13,-21.8869956,-22.4026578,-15.527161800000002,81.09647532,-2.71582092,-58.07502287999999,T02,0
0.51,51,-0.109,-1.093,-0.146,-21.5432208,-20.8556712,-15.0114996,80.89021044,-2.59549974,-58.30420608000001,T02,0
0.52,52,-0.113,-1.088,-0.156,-21.3713334,-18.3919518,-14.4958374,80.68394556000001,-2.48090814,-58.51047096,T02,0
0.53,53,-0.119,-1.073,-0.156,-21.4286292,-14.4958374,-13.5791046,80.4719511,-2.36631654,-58.67662878,T02,0
0.54,54,-0.123,-1.0490000000000002,-0.136,-18.8503182,-11.45916,-11.917526400000002,80.28860454,-2.26891368,-58.80840912,T02,0
0.55,55,-0.1169999999999999,-1.04,-0.144,-18.7930224,-9.7975818,-9.7975818,80.10525798,-2.20015872,-58.92300072000001,T02,0
0.56,56,-0.105,-1.043,-0.14,-19.4232762,-8.8235532,-7.1046792000000005,79.91045226,-2.14286292,-59.02613315999999,T02,0
0.5700000000000001,57,-0.094,-1.051,-0.162,-20.5118964,-8.3651868,-4.0680017999999984,79.70991696000002,-2.1199446,-59.11207686,T02,0
0.5800000000000001,58,-0.092,-1.055,-0.173,-20.5691922,-8.8235532,-1.8334656000000005,79.50365208,-2.11421502,-59.20375014,T02,0
0.59,59,-0.1,-1.045,-0.166,-21.2567418,-8.250595200000001,-0.6302538000000001,79.29165762,-2.12567418,-59.28969384000001,T02,0
0.6,60,-0.103,-1.022,-0.187,-22.9756158,-7.734933000000002,0.1145916,79.05674484,-2.1485925000000003,-59.36417838,T02,0
0.61,61,-0.115,-1.003,-0.1939999999999999,-23.9496444,-7.2765666,0.286479,78.82183205999998,-2.1657812400000003,-59.43866292,T02,0
0.62,62,-0.12,-0.991,-0.213,-26.1841806,-6.0733548,-0.1718874,78.55827138,-2.1772404,-59.50168829999999,T02,0
0.63,63,-0.124,-0.981,-0.245,-28.5333084,-4.6982556,-1.3178034,78.27179238,-2.1772404,-59.55325452,T02,0
0.64,64,-0.124,-0.965,-0.249,-29.507337,-2.291832,-2.2345362,77.96812464000001,-2.16005166,-59.58190241999999,T02,0
0.65,65,-0.133,-0.943,-0.24,-30.4240698,1.8907614,-3.0939732,77.65299774,-2.1485925000000003,-59.57044326000001,T02,0
0.66,66,-0.156,-0.9,-0.204,-32.257535399999995,7.2765666,-3.5523396000000003,77.3206821,-2.10275586,-59.50741787999999,T02,0
0.67,67,-0.163,-0.853,-0.203,-34.262888399999994,11.8602306,-3.380452200000001,76.96544814,-2.05118964,-59.40428544,T02,0
0.68,68,-0.148,-0.831,-0.22,-34.2055926,15.4125702,-2.6929026,76.61594376000002,-1.99962342,-59.26677552,T02,0
0.6900000000000001,69,-0.134,-0.851,-0.2239999999999999,-31.79916900000001,17.303331600000003,-2.2345362,76.28362812,-1.94232762,-59.10634728,T02,0
0.7000000000000001,70,-0.122,-0.884,-0.233,-30.7678446,20.168121600000006,-2.0053530000000004,75.95704206,-1.89649098,-58.91727113999999,T02,0
0.7100000000000001,71,-0.127,-0.902,-0.259,-29.67922440000001,22.9756158,-2.578311,75.64764474,-1.82200644,-58.6995471,T02,0
0.72,72,-0.133,-0.922,-0.258,-27.4446882,25.78311,-3.9534102,75.35543616,-1.73033316,-58.46463432,T02,0
0.73,73,-0.1169999999999999,-0.928,-0.2289999999999999,-27.1582092,28.5906042,-5.5003968,75.06895716,-1.6157415599999996,-58.20680322000001,T02,0
0.74,74,-0.149,-0.917,-0.217,-27.788463,30.7678446,-6.760904399999999,74.771019,-1.48396122,-57.93178338,T02,0
0.75,75,-0.177,-0.8859999999999999,-0.2,-31.6845774,31.340802600000004,-8.136003599999999,74.44443294,-1.3464512999999998,-57.65103395999999,T02,0
0.76,76,-0.171,-0.863,-0.2289999999999999,-34.66395900000001,33.5753388,-10.7143146,74.07773982,-1.1688343199999998,-57.35882538,T02,0
0.77,77,-0.146,-0.857,-0.239,-37.5860448,35.9817624,-13.3499214,73.68812838,-0.95683986,-57.05515764,T02,0
0.78,78,-0.1119999999999999,-0.867,-0.22,-39.3622146,38.3308902,-15.469866,73.27559862,-0.7161975,-56.73430116,T02,0
0.79,79,-0.073,-0.883,-0.239,-42.97185,41.0237928,-16.386598799999998,72.82869138,-0.4526368200000001,-56.39625594,T02,0
0.8,80,-0.027,-0.911,-0.24,-45.550161,41.6540466,-16.558486199999994,72.36459540000001,-0.18907614,-56.05248114,T02,0
0.81,81,-0.015,-0.931,-0.2339999999999999,-47.6128098,42.7426668,-17.7044022,71.87185152,0.0859437,-55.70297676,T02,0
0.8200000000000001,82,-0.035,-0.951,-0.258,-51.9672906,45.0917946,-17.8189938,71.33900058,0.37815228,-55.33628364,T02,0
0.8300000000000001,83,-0.062,-0.946,-0.26,-54.7747848,46.2377106,-16.501190400000002,70.78323132,0.6589017,-54.95813136,T02,0
0.8400000000000001,84,-0.088,-0.91,-0.223,-57.8114622,46.29500640000001,-14.037471,70.19308457999999,0.92819196,-54.56851991999999,T02,0
0.85,85,-0.126,-0.846,-0.1969999999999999,-62.8534926,44.2323576,-10.4851314,69.56283078,1.1459160000000002,-54.19609722,T02,0
0.86,86,-0.132,-0.7929999999999999,-0.1889999999999999,-63.9994086,42.7426668,-8.307891,68.91538824,1.3579104599999998,-53.8294041,T02,0
0.87,87,-0.118,-0.755,-0.185,-65.7755784,39.8778768,-5.443101,68.25075696,1.53552744,-53.48562930000001,T02,0
0.88,88,-0.071,-0.743,-0.179,-68.1247062,36.898495200000006,-4.8701430000000006,67.56320736,1.6959556799999995,-53.16477282,T02,0
0.89,89,-0.035,-0.777,-0.1369999999999999,-67.43715660000001,32.658606,-7.7922288,66.88138734,1.87930224,-52.89548255999999,T02,0
0.9,90,-0.026,-0.767,-0.166,-76.89096359999998,30.1375908,-11.2299768,66.10789403999999,2.07983754,-52.67202894,T02,0
0.91,91,-0.036,-0.7559999999999999,-0.158,-76.7190762,33.5753388,-14.266654199999998,65.33440074,2.32620948,-52.425657,T02,0
0.92,92,-0.035,-0.7759999999999999,-0.22,-75.2293854,38.0444112,-18.2200644,64.57809618,2.6356068,-52.16209632,T02,0
0.93,93,-0.006,-0.799,-0.2289999999999999,-74.9429064,38.90384820000001,-18.2773602,63.82752120000001,2.94500412,-51.89280606,T02,0
0.94,94,0.0579999999999999,-0.789,-0.273,-78.60983759999998,31.2835068,-14.4958374,63.03683916,3.19710564,-51.686541180000006,T02,0
0.95,95,0.129,-0.799,-0.4320000000000001,-80.61519059999998,21.6578124,-9.9121734,62.21750922,3.37472262,-51.5375721,T02,0
0.96,96,0.212,-0.821,-0.386,-79.81304940000003,12.4904844,-6.5317212,61.40963844,3.47785506,-51.46308756,T02,0
0.97,97,0.251,-0.76,-0.391,-81.64651500000002,2.6929026,-6.417129599999999,60.57884934,3.5351508600000003,-51.47454672,T02,0
0.98,98,0.242,-0.701,-0.325,-77.80769640000003,-6.0733548,-7.8495246,59.7881673,3.56379876,-51.57194958,T02,0
0.99,99,0.211,-0.6559999999999999,-0.294,-73.338624,-10.2559482,-9.0527364,59.03186274000001,3.58671708,-51.7094595,T02,0
1.0,100,0.165,-0.653,-0.282,-67.0933818,-12.032118,-10.9434978,58.35004272,3.61536498,-51.87561732,T02,0
1.01,101,0.1009999999999999,-0.698,-0.255,-61.592985,-10.8289062,-11.9748222,57.71405934000001,3.65547204,-52.03031598,T02,0
1.02,102,0.043,-0.7,-0.308,-61.36380179999999,-9.453807,-11.688343199999998,57.08380553999999,3.6955791,-52.17928506,T02,0
1.03,103,-0.024,-0.67,-0.3339999999999999,-58.8427866,-7.906820400000001,-9.3392154,56.48219964,3.724227,-52.29960624,T02,0
1.04,104,-0.072,-0.632,-0.356,-55.92070079999999,-6.1879464,-7.5057497999999985,55.90924163999999,3.74714532,-52.39700910000001,T02,0
1.05,105,-0.065,-0.607,-0.369,-53.34238979999999,-4.010706000000001,-6.3025379999999975,55.35920196000001,3.76433406,-52.46576406000001,T02,0
1.06,106,-0.016,-0.583,-0.397,-50.5348956,-1.2032118,-7.161975,54.84353976,3.810170700000002,-52.51733028,T02,0
1.07,107,0.022,-0.581,-0.462,-47.7846972,0.8594370000000001,-8.021412000000002,54.35652546,3.873196080000002,-52.56316691999999,T02,0
1.08,108,0.0579999999999999,-0.637,-0.474,-42.112413,2.5210152000000003,-8.136003599999999,53.92680696,3.94768062,-52.59181482,T02,0
1.09,109,0.09,-0.6629999999999999,-0.4579999999999999,-40.10706,2.6929026,-7.0473834,53.52000678,4.01643558,-52.60900356,T02,0
1.1,110,0.1159999999999999,-0.662,-0.485,-38.4454818,1.6042823999999998,-4.8128472,53.124665760000006,4.0680017999999984,-52.62619229999999,T02,0
1.11,111,0.135,-0.6759999999999999,-0.516,-35.236917,0.1145916,-2.0053530000000004,52.76370221999999,4.0794609600000005,-52.63765146,T02,0
1.12,112,0.158,-0.682,-0.5589999999999999,-33.804522,-1.0313244,1.145916,52.41992742,4.05654264,-52.64338104000001,T02,0
1.13,113,0.159,-0.6829999999999999,-0.593,-31.111619399999995,-3.5523396000000003,4.297185,52.10480051999999,3.99924684,-52.64338104000001,T02,0
1.14,114,0.142,-0.6759999999999999,-0.586,-29.5646328,-4.5263682,5.9014674000000005,51.80686236,3.9247623,-52.64911062,T02,0
1.15,115,0.1369999999999999,-0.664,-0.63,-28.361421000000004,-4.3544808,5.0993262,51.49173546,3.8674665,-52.64338104000001,T02,0
1.16,116,0.136,-0.691,-0.688,-25.3820394,-3.6096354,3.151269,51.23390436,3.81590028,-52.6548402,T02,0
1.17,117,0.129,-0.733,-0.682,-22.7464326,-3.151269,1.0886202,51.00472116,3.78725238,-52.67202894,T02,0
1.18,118,0.124,-0.7440000000000001,-0.6809999999999999,-22.1161788,-3.724227,0.286479,50.77553796,3.75860448,-52.70067684000001,T02,0
1.19,119,0.131,-0.762,-0.6890000000000001,-20.8556712,-6.016058999999999,0.6302538000000001,50.5635435,3.71276784,-52.74651348,T02,0
1.2,120,0.134,-0.76,-0.693,-20.5691922,-8.7662574,1.6615782,50.33436029999999,3.65547204,-52.7980797,T02,0
1.21,121,0.127,-0.75,-0.703,-19.8816426,-11.2872726,2.5210152000000003,50.133825,3.56379876,-52.87256424,T02,0
1.22,122,0.122,-0.7290000000000001,-0.706,-18.7930224,-13.0061466,2.86479,49.93901928,3.46066632,-52.95277836,T02,0
1.23,123,0.133,-0.726,-0.7120000000000001,-18.334656,-15.469866,3.4377480000000005,49.74994314,3.33461556,-53.05591080000001,T02,0
1.24,124,0.142,-0.718,-0.701,-17.5325148,-18.8503182,4.2398892,49.56659658,3.18564648,-53.1705024,T02,0
1.25,125,0.136,-0.705,-0.6920000000000001,-17.3606274,-22.2880662,4.3544808,49.36606128,3.01948866,-53.30801232,T02,0
1.26,126,0.12,-0.701,-0.73,-15.9855282,-23.4339822,3.5523396000000003,49.19990346,2.84760126,-53.46844056,T02,0
1.27,127,0.093,-0.701,-0.723,-13.8082878,-22.1734746,2.2345362,49.05093438,2.68717302,-53.62313922,T02,0
1.28,128,0.057,-0.682,-0.684,-11.0580894,-19.8243468,0.8021411999999999,48.93634278,2.55539268,-53.7721083,T02,0
1.29,129,0.025,-0.6859999999999999,-0.6679999999999999,-7.906820400000001,-19.0222056,-0.3437748,48.85039908,2.4350715000000003,-53.92107738,T02,0
1.3,130,0.025,-0.695,-0.687,-6.4744254,-19.8816426,-0.4010705999999999,48.75872579999999,2.3147503200000004,-54.07004645999999,T02,0
1.31,131,0.052,-0.71,-0.705,-4.7555514,-20.7983754,-0.6875496,48.70715958,2.18296998,-54.2304747,T02,0
1.32,132,0.071,-0.7070000000000001,-0.7,-3.2658606,-20.3973048,-1.145916,48.67278209999999,2.0626488000000003,-54.39663252,T02,0
1.33,133,0.065,-0.7020000000000001,-0.701,-0.8594370000000001,-19.194093,-1.5469866,48.66132294000001,1.95378678,-54.55133118,T02,0
1.34,134,0.044,-0.706,-0.726,0.3437748,-18.8503182,-2.1199446,48.66132294000001,1.85065434,-54.71175942,T02,0
1.35,135,0.0409999999999999,-0.6970000000000001,-0.7120000000000001,1.7188740000000002,-18.8503182,-2.291832,48.64986378,1.75325148,-54.86072849999999,T02,0
1.36,136,0.052,-0.706,-0.7070000000000001,3.724227,-18.2200644,-2.4064236,48.68424126,1.6558486199999998,-55.01542716,T02,0
1.37,137,0.049,-0.72,-0.718,5.3285094000000015,-16.4438946,-2.578311,48.73580748,1.5756344999999998,-55.15866666000001,T02,0
1.38,138,0.047,-0.727,-0.743,6.016058999999999,-14.4385416,-2.4064236,48.79883286,1.50114996,-55.28471741999999,T02,0
1.39,139,0.035,-0.727,-0.722,7.734933000000002,-14.4958374,-1.7761698,48.8733174,1.42666542,-55.40503860000001,T02,0
1.4,140,0.027,-0.716,-0.723,9.0527364,-14.4385416,-1.7188740000000002,48.93634278,1.3464512999999998,-55.5196302,T02,0
1.41,141,0.036,-0.7140000000000001,-0.758,10.1413566,-12.318597,-1.6615782,49.03947522,1.28342592,-55.62849222,T02,0
1.42,142,0.03,-0.735,-0.758,13.6364004,-8.078707799999998,-2.9793816000000004,49.17698514,1.2605076000000002,-55.708706340000006,T02,0
1.43,143,-0.01,-0.736,-0.7340000000000001,15.870936600000002,-3.4377480000000005,-4.1252976000000015,49.33741338,1.27196676,-55.76027256,T02,0
1.44,144,-0.006,-0.758,-0.753,18.2200644,0.4583664000000001,-5.2139178,49.52075994000001,1.31207382,-55.78892046,T02,0
1.45,145,0.009,-0.773,-0.73,20.3973048,2.0053530000000004,-5.443101,49.71556566,1.36936962,-55.80610920000001,T02,0
1.46,146,0.043,-0.792,-0.725,21.9442914,1.9480572,-5.3285094000000015,49.93901928,1.42666542,-55.82329794,T02,0
1.47,147,0.09,-0.8009999999999999,-0.745,21.3140376,-0.4583664000000001,-4.8701430000000006,50.15101374,1.4610428999999998,-55.85767542,T02,0
1.48,148,0.133,-0.8220000000000001,-0.743,22.2880662,-4.7555514,-4.5263682,50.38019694,1.47250206,-55.92070079999999,T02,0
1.49,149,0.156,-0.8079999999999999,-0.757,21.829699800000004,-8.9954406,-4.5263682,50.59792098,1.45531332,-56.02383324,T02,0
1.5,150,0.126,-0.84,-0.7559999999999999,24.694489800000003,-11.5164558,-4.4690724,50.83856333999999,1.432395,-56.138424840000006,T02,0
1.51,151,0.079,-0.86,-0.764,24.5226024,-12.5477802,-4.297185,51.08493528,1.39228794,-56.25874602,T02,0
1.52,152,0.011,-0.872,-0.757,25.78311,-11.1153852,-4.8701430000000006,51.34849596,1.36936962,-56.3790672,T02,0
1.53,153,-0.0279999999999999,-0.8690000000000001,-0.7340000000000001,26.69984280000001,-6.875496000000001,-6.0733548,51.617786220000006,1.38082878,-56.47074048,T02,0
1.54,154,-0.035,-0.8690000000000001,-0.7190000000000001,27.7311672,-2.9220858,-7.161975,51.89853564,1.4209358399999998,-56.53376586,T02,0
1.55,155,0.0,-0.88,-0.722,28.5906042,0.0,-7.3911582,52.17928506,1.4782316400000002,-56.5796025,T02,0
1.56,156,0.044,-0.893,-0.725,28.934379,1.3750992,-7.0473834,52.47149363999999,1.5469866,-56.60825040000001,T02,0
1.57,157,0.075,-0.912,-0.7120000000000001,29.793816,1.3750992,-6.4744254,52.77516138,1.61001198,-56.6368983,T02,0
1.58,158,0.0819999999999999,-0.922,-0.716,30.3094782,0.7448454000000001,-6.130650599999999,53.07882912,1.6673077799999998,-56.66554620000001,T02,0
1.59,159,0.085,-0.936,-0.7290000000000001,30.0229992,-0.9167328,-5.72958,53.38249686,1.71314442,-56.70565326,T02,0
1.6,160,0.093,-0.956,-0.743,29.67922440000001,-3.2085648,-5.443101,53.68043501999999,1.7475218999999995,-56.76294906,T02,0
1.61,161,0.084,-0.974,-0.738,29.5646328,-5.6722842,-5.1566220000000005,53.97837317999999,1.76471064,-56.8374336,T02,0
1.62,162,0.063,-0.983,-0.727,29.1635622,-6.6463128000000005,-4.8701430000000006,54.27058175999999,1.77044022,-56.91764771999999,T02,0
1.63,163,0.036,-0.986,-0.7240000000000001,28.5333084,-6.8182002000000015,-4.010706000000001,54.56279034000001,1.77044022,-56.99786184000001,T02,0
1.64,164,0.023,-0.976,-0.7140000000000001,27.7311672,-6.4744254,-2.9220858,54.83781018,1.75898106,-57.06661680000001,T02,0
1.65,165,0.02,-0.983,-0.688,28.4187168,-6.2452422,-1.7188740000000002,55.12428918000001,1.74179232,-57.1239126,T02,0
1.66,166,0.026,-0.969,-0.703,26.4706596,-6.130650599999999,-0.8594370000000001,55.39357944,1.7188740000000002,-57.1812084,T02,0
1.6700000000000002,167,0.025,-0.973,-0.688,27.903054600000004,-6.0733548,-0.2291832000000001,55.67432886,1.6959556799999995,-57.23277462000001,T02,0
1.68,168,0.023,-0.964,-0.664,27.1582092,-5.958763200000001,0.0572958,55.94934870000001,1.6615782,-57.27861126000001,T02,0
1.69,169,0.024,-0.956,-0.6609999999999999,26.5852512,-6.016058999999999,0.1145916,56.21863896,1.6329303,-57.32444790000001,T02,0
1.7,170,0.026,-0.971,-0.65,26.41336380000001,-6.3025379999999975,0.1718874,56.48219964,1.6042824000000002,-57.37601412,T02,0
1.71,171,0.021,-0.949,-0.649,24.8663772,-6.016058999999999,0.4010705999999999,56.73430116,1.56990492,-57.42185076000001,T02,0
1.72,172,0.015,-0.94,-0.633,25.78311,-5.844171599999999,0.0,56.99786184000001,1.5412570200000002,-57.47341698,T02,0
1.73,173,0.008,-0.941,-0.62,25.6112226,-5.443101,-0.1718874,57.25569294,1.5183387000000002,-57.51925361999999,T02,0
1.74,174,0.006,-0.935,-0.613,24.9809688,-5.0993262,-0.3437748,57.50779446,1.50114996,-57.55936068,T02,0
1.75,175,0.011,-0.943,-0.616,25.0382646,-5.1566220000000005,-0.9167328,57.7541664,1.48396122,-57.60519732,T02,0
1.76,176,0.015,-0.95,-0.623,24.0069402,-5.3285094000000015,-1.4896908000000002,58.00053833999999,1.47250206,-57.66249312,T02,0
1.77,177,0.013,-0.96,-0.626,23.2620948,-5.844171599999999,-2.0053530000000004,58.23545111999999,1.4610428999999998,-57.71978892,T02,0
1.78,178,0.006,-0.962,-0.626,21.7151082,-5.72958,-2.3491278,58.45317516,1.45531332,-57.78281430000001,T02,0
1.79,179,-0.003,-0.962,-0.628,20.5691922,-5.3285094000000015,-2.9220858,58.66516962000001,1.4610428999999998,-57.8401101,T02,0
1.8,180,-0.0069999999999999,-0.963,-0.625,19.0222056,-4.6409598,-3.4377480000000005,58.8427866,1.4610428999999998,-57.8974059,T02,0
1.81,181,-0.011,-0.958,-0.622,17.761698000000006,-4.010706000000001,-4.010706000000001,59.02613315999999,1.4782316400000002,-57.94897212000001,T02,0
1.82,182,-0.01,-0.955,-0.608,16.386598799999998,-3.2658606,-4.5263682,59.19229098,1.50114996,-58.00053833999999,T02,0
1.83,183,0.0,-0.949,-0.597,15.0114996,-2.6929026,-4.9847346,59.34126005999999,1.53552744,-58.04637498,T02,0
1.84,184,0.009,-0.941,-0.584,13.8082878,-2.4064236,-5.5576926,59.47876998,1.5756344999999998,-58.0979412,T02,0
1.85,185,0.02,-0.935,-0.575,11.9748222,-2.4064236,-6.0733548,59.58763199999999,1.6157415599999996,-58.14377784,T02,0
1.86,186,0.026,-0.928,-0.5670000000000001,10.8289062,-2.6356068,-6.4744254,59.69649402,1.6615782,-58.20107363999999,T02,0
1.87,187,0.03,-0.923,-0.562,9.453807,-3.0939732,-6.5317212,59.7881673,1.70168526,-58.25836943999999,T02,0
1.88,188,0.031,-0.918,-0.5579999999999999,8.5370742,-3.8388186,-6.8182002000000015,59.87411099999999,1.74179232,-58.3271244,T02,0
1.89,189,0.0279999999999999,-0.917,-0.552,7.7922288,-4.5263682,-7.0473834,59.95432512,1.78189938,-58.40160894,T02,0
1.9,190,0.023,-0.912,-0.5489999999999999,6.8182002000000015,-5.042030400000002,-7.1046792000000005,60.00589134000001,1.81627686,-58.47609348,T02,0
1.91,191,0.023,-0.908,-0.5479999999999999,6.1879464,-5.443101,-7.161975,60.06318714,1.85638392,-58.56203718,T02,0
1.92,192,0.015,-0.901,-0.552,5.2139178,-5.9014674000000005,-7.0473834,60.11475336000001,1.8907614,-58.64798088,T02,0
1.93,193,0.001,-0.892,-0.5429999999999999,4.6409598,-6.130650599999999,-6.703608600000001,60.16059,1.9194093000000003,-58.73392457999999,T02,0
1.94,194,-0.005,-0.8859999999999999,-0.537,4.4690724,-5.844171599999999,-6.589017,60.20642664,1.9480572000000005,-58.8141387,T02,0
1.95,195,-0.0069999999999999,-0.883,-0.532,4.297185,-5.1566220000000005,-6.3598338,60.22361538,1.9595163600000003,-58.88862324,T02,0
1.96,196,-0.01,-0.879,-0.529,3.8961144,-4.6982556,-6.0733548,60.26372244,1.99389384,-58.9573782,T02,0
1.97,197,-0.008,-0.873,-0.529,3.6096354,-4.0680017999999984,-5.6149884000000005,60.29809991999999,2.02254174,-59.02040358000001,T02,0
1.98,198,-0.004,-0.862,-0.528,3.3231564,-3.4377480000000005,-4.8128472,60.32674782,2.04546006,-59.07769938,T02,0
1.99,199,0.0,-0.853,-0.518,3.6096354,-3.151269,-4.1825934,60.36685487999999,2.06837838,-59.12353602,T02,0
2.0,200,0.006,-0.8540000000000001,-0.512,3.8388186,-2.9793816000000004,-3.6669312000000014,60.36112530000001,2.06837838,-59.16364308,T02,0
2.01,201,0.017,-0.85,-0.512,3.4950437999999995,-3.0939732,-3.0366774,60.39550278,2.07983754,-59.20375014,T02,0
2.02,202,0.022,-0.8490000000000001,-0.512,3.3231564,-3.724227,-2.3491278,60.42988026,2.08556712,-59.24958678,T02,0
2.03,203,0.02,-0.85,-0.506,3.3231564,-4.1825934,-1.5469866,60.46425774000001,2.07983754,-59.29542342,T02,0
2.04,204,0.012,-0.85,-0.505,3.4950437999999995,-4.0680017999999984,-0.9740286,60.49863522,2.06837838,-59.33553048,T02,0
2.05,205,0.005,-0.847,-0.5,3.5523396000000003,-3.7815228,-0.4583664000000001,60.49863522,2.02827132,-59.36417838,T02,0
2.06,206,-0.003,-0.8440000000000001,-0.495,3.8388186,-3.380452200000001,-0.1718874,60.53301269999999,2.01681216,-59.39282628,T02,0
2.07,207,-0.006,-0.84,-0.499,4.1252976000000015,-2.291832,0.1145916,60.57884934,2.005353,-59.4157446,T02,0
2.08,208,-0.002,-0.841,-0.504,4.1252976000000015,-1.6615782,0.1718874,60.6189564,1.99389384,-59.42720376,T02,0
2.09,209,0.0,-0.8440000000000001,-0.499,4.4117766,-1.432395,0.5156622000000001,60.66479303999999,1.98243468,-59.43866292,T02,0
2.1,210,0.009,-0.8490000000000001,-0.496,4.4117766,-1.3178034,0.4583664000000001,60.65906345999999,1.95378678,-59.43866292,T02,0
2.11,211,0.016,-0.85,-0.495,4.3544808,-1.4896908000000002,0.1718874,60.70490010000001,1.94232762,-59.45012207999999,T02,0
2.12,212,0.02,-0.851,-0.494,4.2398892,-1.3178034,-0.1145916,60.75073674,1.93659804,-59.46158124,T02,0
2.13,213,0.019,-0.851,-0.493,4.1252976000000015,-1.2032118,-0.5156622000000001,60.79084379999999,1.93659804,-59.47876998,T02,0
2.14,214,0.018,-0.8540000000000001,-0.494,4.0680017999999984,-0.9740286,-0.8594370000000001,60.83095086000001,1.94232762,-59.49022914,T02,0
2.15,215,0.018,-0.8590000000000001,-0.4970000000000001,3.8961144,-0.7448454000000001,-1.2605076000000002,60.81376212,1.93086846,-59.49595872,T02,0
2.16,216,0.019,-0.858,-0.503,3.5523396000000003,-0.286479,-1.6042823999999998,60.84813959999999,1.94232762,-59.50741787999999,T02,0
2.17,217,0.024,-0.861,-0.505,3.5523396000000003,0.3437748,-2.0053530000000004,60.88251707999999,1.96524594,-59.513147460000006,T02,0
2.18,218,0.025,-0.868,-0.508,3.380452200000001,0.4583664000000001,-2.3491278,60.91689456,1.98816426,-59.51887703999999,T02,0
2.19,219,0.027,-0.877,-0.509,3.0939732,0.4010705999999999,-2.7501984,60.951272040000006,2.01681216,-59.52460662,T02,0
2.2,220,0.0289999999999999,-0.878,-0.514,2.6356068,0.2291832000000001,-2.8074942000000003,60.92262414,2.0340009,-59.53033620000001,T02,0
2.21,221,0.031,-0.889,-0.516,2.6356068,0.0572958,-2.9220858,60.951272040000006,2.0626488000000003,-59.54179536,T02,0
2.22,222,0.032,-0.892,-0.517,2.3491278,-0.1718874,-3.151269,60.97419036,2.08556712,-59.5589841,T02,0
2.23,223,0.034,-0.897,-0.52,2.1772404,-0.286479,-3.2658606,60.9913791,2.11421502,-59.57617283999999,T02,0
2.24,224,0.032,-0.902,-0.523,2.1772404,-0.572958,-3.151269,61.01429741999999,2.14286292,-59.59909116,T02,0
2.25,225,0.0289999999999999,-0.901,-0.523,2.0053530000000004,-0.7448454000000001,-3.0939732,60.9913791,2.15432208,-59.6162799,T02,0
2.26,226,0.026,-0.901,-0.521,1.6615782,-0.7448454000000001,-2.9220858,61.00283826,2.1772404,-59.63346864,T02,0
2.27,227,0.025,-0.899,-0.519,1.7188740000000002,-0.8594370000000001,-2.6929026,61.020027000000006,2.19442914,-59.656386960000006,T02,0
2.28,228,0.023,-0.902,-0.516,1.4896908000000002,-0.6875496,-2.578311,61.03721574,2.21734746,-59.6735757,T02,0
2.29,229,0.024,-0.898,-0.516,1.0886202,-0.4583664000000001,-2.4637194,61.0486749,2.2345362,-59.69076444,T02,0
2.3,230,0.026,-0.897,-0.514,0.9740286,-0.4583664000000001,-2.3491278,60.98564952,2.2345362,-59.69649402,T02,0
2.31,231,0.027,-0.894,-0.515,0.4583664000000001,-0.5156622000000001,-2.0626488000000003,60.98564952,2.25172494,-59.71368276000001,T02,0
2.32,232,0.024,-0.889,-0.512,0.5156622000000001,-0.7448454000000001,-1.8907614,60.9913791,2.2631841,-59.72514192,T02,0
2.33,233,0.023,-0.8859999999999999,-0.506,0.4010705999999999,-0.4583664000000001,-1.7761698,60.99710868000001,2.2746432600000004,-59.74233065999999,T02,0
2.34,234,0.022,-0.8809999999999999,-0.504,0.286479,0.0,-1.4896908000000002,61.00283826,2.2918320000000003,-59.74806024000001,T02,0
2.35,235,0.025,-0.875,-0.499,0.3437748,0.1145916,-1.3750992,60.87105792,2.25745452,-59.73660108,T02,0
2.36,236,0.0279999999999999,-0.871,-0.495,0.4010705999999999,0.3437748,-1.2605076000000002,60.8767875,2.26891368,-59.74233065999999,T02,0
2.37,237,0.031,-0.87,-0.493,0.3437748,0.4583664000000001,-0.9740286,60.8767875,2.28037284,-59.74233065999999,T02,0
2.38,238,0.031,-0.867,-0.491,0.2291832000000001,0.4583664000000001,-0.6875496,60.88251707999999,2.2918320000000003,-59.74233065999999,T02,0
2.39,239,0.032,-0.865,-0.4920000000000001,0.4010705999999999,0.5156622000000001,-0.5156622000000001,60.88824666000001,2.29756158,-59.73660108,T02,0
2.4,240,0.035,-0.86,-0.495,0.4010705999999999,0.5156622000000001,-0.2291832000000001,60.61322682,2.2746432600000004,-59.7022236,T02,0
2.41,241,0.033,-0.856,-0.4970000000000001,0.572958,0.2291832000000001,0.0,60.6189564,2.2746432600000004,-59.69649402,T02,0
2.42,242,0.031,-0.851,-0.491,0.9167328,0.2291832000000001,0.1718874,60.63041556,2.2746432600000004,-59.69649402,T02,0
2.43,243,0.0289999999999999,-0.848,-0.487,1.0886202,0.1718874,0.2291832000000001,60.64187472,2.2746432600000004,-59.69076444,T02,0
2.44,244,0.032,-0.8440000000000001,-0.488,1.0313244,0.2291832000000001,0.4010705999999999,60.65333388000001,2.26891368,-59.68503486,T02,0
2.45,245,0.034,-0.8440000000000001,-0.487,1.3178034,0.3437748,0.4010705999999999,60.57884934,2.2631841,-59.6735757,T02,0
2.46,246,0.037,-0.845,-0.489,1.4896908000000002,0.286479,0.5156622000000001,60.59603808000001,2.2631841,-59.66784612,T02,0
2.47,247,0.039,-0.847,-0.49,1.8334656000000005,0.1718874,0.4010705999999999,60.61322682,2.25745452,-59.66211654,T02,0
2.48,248,0.037,-0.85,-0.488,2.0053530000000004,0.0,0.286479,60.63041556,2.25745452,-59.66211654,T02,0
2.49,249,0.034,-0.851,-0.49,2.4064236,0.1145916,0.1145916,60.65906345999999,2.25745452,-59.656386960000006,T02,0
2.5,250,0.034,-0.856,-0.489,2.4637194,0.2291832000000001,-0.2291832000000001,60.6189564,2.25172494,-59.65065738,T02,0
2.51,251,0.031,-0.857,-0.489,2.5210152000000003,0.4010705999999999,-0.5156622000000001,60.6476043,2.2631841,-59.65065738,T02,0
2.52,252,0.0289999999999999,-0.855,-0.49,2.5210152000000003,0.7448454000000001,-0.9167328,60.67052262,2.2746432600000004,-59.64492780000001,T02,0
2.53,253,0.03,-0.8490000000000001,-0.491,2.578311,1.0313244,-1.0886202,60.69917052,2.28610242,-59.63919822,T02,0
2.54,254,0.035,-0.853,-0.49,3.0939732,1.0313244,-1.3178034,60.72781842000001,2.30329116,-59.63919822,T02,0
2.55,255,0.042,-0.865,-0.495,3.151269,0.8594370000000001,-1.3750992,60.71635926,2.33193906,-59.63346864,T02,0
2.56,256,0.045,-0.871,-0.4970000000000001,3.0366774,0.7448454000000001,-1.4896908000000002,60.74500716,2.3491278,-59.63346864,T02,0
2.57,257,0.04,-0.8740000000000001,-0.502,2.9793816000000004,0.6875496,-1.6615782,60.77365506,2.36631654,-59.63346864,T02,0
2.58,258,0.036,-0.8759999999999999,-0.504,3.151269,0.6875496,-1.6615782,60.80803254,2.38350528,-59.63346864,T02,0
2.59,259,0.035,-0.878,-0.505,3.2085648,0.6875496,-1.6042823999999998,60.84241002,2.40069402,-59.63919822,T02,0
2.6,260,0.036,-0.88,-0.504,3.3231564,0.5156622000000001,-1.6042823999999998,60.83095086000001,2.41215318,-59.63346864,T02,0
2.61,261,0.038,-0.884,-0.501,3.4950437999999995,0.286479,-1.6042823999999998,60.86532834,2.42934192,-59.63919822,T02,0
2.62,262,0.04,-0.888,-0.504,2.86479,0.1145916,-1.4896908000000002,60.89397623999999,2.44080108,-59.64492780000001,T02,0
2.63,263,0.046,-0.884,-0.505,2.5210152000000003,0.1718874,-1.4896908000000002,60.92262414,2.45798982,-59.65065738,T02,0
2.64,264,0.046,-0.882,-0.501,2.4637194,0.3437748,-1.6615782,60.94554246,2.47517856,-59.656386960000006,T02,0
2.65,265,0.037,-0.885,-0.502,2.4064236,0.4010705999999999,-1.7188740000000002,60.91689456,2.48090814,-59.656386960000006,T02,0
2.66,266,0.035,-0.888,-0.501,2.3491278,0.6302538000000001,-1.6042823999999998,60.93981288,2.49809688,-59.656386960000006,T02,0
2.67,267,0.0409999999999999,-0.888,-0.499,2.1772404,0.8594370000000001,-1.3178034,60.96273120000001,2.51528562,-59.656386960000006,T02,0
2.68,268,0.043,-0.888,-0.499,2.0053530000000004,0.8594370000000001,-1.0313244,60.98564952,2.52674478,-59.65065738,T02,0
2.69,269,0.044,-0.8859999999999999,-0.499,1.7188740000000002,0.7448454000000001,-0.8021411999999999,61.00283826,2.53820394,-59.65065738,T02,0
2.7,270,0.043,-0.884,-0.501,1.6615782,0.572958,-0.4583664000000001,60.92835372,2.5496631,-59.63346864,T02,0
2.71,271,0.038,-0.8809999999999999,-0.502,1.6042823999999998,0.4583664000000001,-0.3437748,60.94554246,2.55539268,-59.63346864,T02,0
2.72,272,0.036,-0.8759999999999999,-0.5,1.7188740000000002,0.3437748,-0.1145916,60.96273120000001,2.5611222600000003,-59.62773906,T02,0
2.73,273,0.035,-0.875,-0.493,1.8334656000000005,0.4583664000000001,-0.1718874,60.98564952,2.5611222600000003,-59.62773906,T02,0
2.74,274,0.038,-0.873,-0.4920000000000001,1.7188740000000002,0.572958,-0.0572958,61.00283826,2.56685184,-59.62200948000001,T02,0
2.75,275,0.038,-0.8690000000000001,-0.49,1.432395,0.6302538000000001,0.1145916,60.92835372,2.55539268,-59.60482074,T02,0
2.76,276,0.0409999999999999,-0.868,-0.489,1.3178034,0.4583664000000001,0.3437748,60.94554246,2.55539268,-59.59909116,T02,0
2.77,277,0.0409999999999999,-0.8640000000000001,-0.487,1.2032118,0.3437748,0.572958,60.95700161999999,2.55539268,-59.59336158,T02,0
2.78,278,0.042,-0.862,-0.488,1.145916,0.1145916,0.6875496,60.96846078,2.5496631,-59.58763199999999,T02,0
2.79,279,0.04,-0.8590000000000001,-0.484,1.2032118,0.0,0.6302538000000001,60.97991994,2.54393352,-59.58190241999999,T02,0
2.8,280,0.042,-0.861,-0.48,1.5469866,0.0,0.5156622000000001,60.91689456,2.54393352,-59.57044326000001,T02,0
2.81,281,0.045,-0.8640000000000001,-0.479,1.6615782,-0.1718874,0.4583664000000001,60.9340833,2.53820394,-59.57044326000001,T02,0
2.82,282,0.045,-0.865,-0.477,1.8334656000000005,-0.2291832000000001,0.4583664000000001,60.95700161999999,2.53247436,-59.57044326000001,T02,0
2.83,283,0.0409999999999999,-0.8640000000000001,-0.478,2.0626488000000003,-0.286479,0.6302538000000001,60.97991994,2.52674478,-59.57044326000001,T02,0
2.84,284,0.0409999999999999,-0.8640000000000001,-0.479,2.4064236,-0.286479,0.5156622000000001,61.00283826,2.5210152000000003,-59.57044326000001,T02,0
2.85,285,0.037,-0.865,-0.478,2.86479,0.0,0.4583664000000001,60.97991994,2.50955604,-59.56471368,T02,0
2.86,286,0.035,-0.866,-0.479,2.7501984,0.286479,0.3437748,61.00856784,2.50382646,-59.5589841,T02,0
2.87,287,0.034,-0.868,-0.481,2.9220858,0.4583664000000001,0.1145916,61.03721574,2.50382646,-59.55325452,T02,0
2.88,288,0.034,-0.868,-0.48,3.0366774,0.6875496,0.0,61.07159322,2.50955604,-59.54752494,T02,0
2.89,289,0.035,-0.87,-0.481,3.151269,0.7448454000000001,0.0,61.10597070000001,2.51528562,-59.54179536,T02,0
2.9,290,0.036,-0.871,-0.481,3.2658606,0.6302538000000001,0.0572958,61.09451154,2.50382646,-59.53033620000001,T02,0
2.91,291,0.037,-0.873,-0.482,3.151269,0.572958,0.0,61.12888902000001,2.50955604,-59.52460662,T02,0
2.92,292,0.035,-0.873,-0.483,3.0939732,0.572958,0.0,61.15753692,2.51528562,-59.51887703999999,T02,0
2.93,293,0.036,-0.875,-0.484,3.151269,0.6302538000000001,-0.0572958,61.1919144,2.51528562,-59.513147460000006,T02,0
2.94,294,0.036,-0.877,-0.488,3.151269,0.7448454000000001,-0.1145916,61.22629188,2.5210152000000003,-59.50741787999999,T02,0
2.95,295,0.035,-0.88,-0.487,3.2085648,0.7448454000000001,-0.1718874,61.21483271999999,2.51528562,-59.49595872,T02,0
2.96,296,0.036,-0.883,-0.488,3.380452200000001,0.9167328,-0.1145916,61.24921019999999,2.5210152000000003,-59.49022914,T02,0
2.97,297,0.036,-0.884,-0.487,3.3231564,1.3178034,-0.1145916,61.28358768,2.53247436,-59.47876998,T02,0
2.98,298,0.037,-0.883,-0.488,2.9793816000000004,1.6615782,-0.1145916,61.31796515999999,2.53820394,-59.46158124,T02,0
2.99,299,0.042,-0.882,-0.488,2.8074942000000003,1.7761698,-0.0572958,61.34661306,2.5496631,-59.45012207999999,T02,0
3.0,300,0.046,-0.884,-0.485,2.6356068,1.5469866,-0.0572958,61.32942432,2.56685184,-59.42720376,T02,0
3.01,301,0.048,-0.885,-0.49,2.291832,1.2032118,-0.1145916,61.35234264,2.57258142,-59.42147418,T02,0
3.02,302,0.045,-0.8859999999999999,-0.493,1.8334656000000005,1.0886202,-0.1718874,61.36953138,2.58404058,-59.41001502,T02,0
3.03,303,0.042,-0.885,-0.487,1.7188740000000002,1.0313244,-0.286479,61.38672012000001,2.58977016,-59.40428544,T02,0
3.04,304,0.043,-0.888,-0.488,1.6615782,1.0313244,-0.286479,61.40390886,2.59549974,-59.39282628,T02,0
3.05,305,0.048,-0.895,-0.49,1.3750992,1.0313244,-0.0572958,61.35234264,2.61268848,-59.37563754,T02,0
3.06,306,0.046,-0.897,-0.4920000000000001,1.0886202,1.0886202,0.0572958,61.36380180000001,2.61841806,-59.36417838,T02,0
3.07,307,0.042,-0.898,-0.4920000000000001,0.9740286,0.9740286,0.3437748,61.37526096000001,2.61841806,-59.35271922,T02,0
3.08,308,0.035,-0.898,-0.495,0.572958,0.9740286,0.572958,61.38099053999999,2.61841806,-59.34126005999999,T02,0
3.09,309,0.0289999999999999,-0.893,-0.494,0.4583664000000001,1.145916,0.9740286,61.38672012000001,2.61841806,-59.3298009,T02,0
3.1,310,0.027,-0.892,-0.495,0.4010705999999999,0.9740286,1.3750992,61.31796515999999,2.57258142,-59.30688258,T02,0
3.11,311,0.034,-0.895,-0.4920000000000001,0.1718874,0.3437748,2.0053530000000004,61.32369473999999,2.5611222600000003,-59.29542342,T02,0
3.12,312,0.03,-0.899,-0.489,-0.0572958,-0.2291832000000001,2.6929026,61.31796515999999,2.53247436,-59.28396425999999,T02,0
3.13,313,0.019,-0.899,-0.486,-0.4010705999999999,-0.1718874,3.380452200000001,61.31796515999999,2.50382646,-59.2725051,T02,0
3.14,314,0.011,-0.898,-0.489,-0.9167328,0.6302538000000001,4.0680017999999984,61.30650599999999,2.46944898,-59.24385720000001,T02,0
3.15,315,0.008,-0.895,-0.485,-1.0886202,1.6615782,4.8701430000000006,61.28358768,2.41215318,-59.20947972,T02,0
3.16,316,0.009,-0.894,-0.489,-1.2032118,2.4637194,5.5576926,61.27212852,2.37204612,-59.15791349999999,T02,0
3.17,317,0.008,-0.895,-0.485,-1.0313244,2.86479,6.2452422,61.26066936,2.33193906,-59.10634728,T02,0
3.18,318,0.006,-0.893,-0.48,-1.145916,3.380452200000001,6.8182002000000015,61.25493978000001,2.28610242,-59.0433219,T02,0
3.19,319,0.003,-0.889,-0.478,-1.4896908000000002,3.8961144,7.3911582,61.23775104,2.24026578,-58.97456694,T02,0
3.2,320,0.003,-0.883,-0.477,-1.6615782,4.2398892,7.906820400000001,61.21483271999999,2.1772404,-58.9000824,T02,0
3.21,321,0.002,-0.878,-0.478,-1.6615782,4.4690724,8.021412000000002,61.20337356,2.12567418,-58.81986828,T02,0
3.22,322,0.002,-0.875,-0.466,-1.2032118,4.4690724,8.021412000000002,61.1919144,2.07410796,-58.73965416000001,T02,0
3.23,323,0.004,-0.8690000000000001,-0.461,-0.9167328,4.6409598,7.906820400000001,61.18618482000001,2.02827132,-58.66516962000001,T02,0
3.24,324,0.006,-0.865,-0.457,-0.572958,5.2139178,7.6776372,61.18045524,1.98243468,-58.57922592,T02,0
3.25,325,0.003,-0.856,-0.455,-0.2291832000000001,6.0733548,7.2192707999999985,61.17472566,1.93659804,-58.49328222000001,T02,0
3.26,326,0.002,-0.85,-0.4529999999999999,0.2291832000000001,7.2765666,6.8182002000000015,61.18045524,1.90795014,-58.39587936,T02,0
3.27,327,0.008,-0.845,-0.452,0.6875496,8.307891,6.417129599999999,61.18618482000001,1.8907614,-58.29274692,T02,0
3.28,328,0.018,-0.846,-0.4539999999999999,1.3178034,8.9381448,5.958763200000001,61.20337356,1.87930224,-58.1838849,T02,0
3.29,329,0.025,-0.845,-0.4539999999999999,1.7188740000000002,9.3965112,5.443101,61.22629188,1.87357266,-58.07502287999999,T02,0
3.3,330,0.031,-0.845,-0.4539999999999999,2.0053530000000004,9.568398599999998,4.7555514,61.24348062,1.87930224,-57.96616086,T02,0
3.31,331,0.033,-0.845,-0.4579999999999999,2.2345362,9.740286,4.010706000000001,61.26639894,1.88503182,-57.86302842,T02,0
3.32,332,0.033,-0.845,-0.461,2.4637194,9.9121734,3.151269,61.29504684,1.90222056,-57.75989598,T02,0
3.33,333,0.033,-0.847,-0.461,2.9220858,10.1413566,2.4637194,61.32369473999999,1.93086846,-57.65676354000001,T02,0
3.34,334,0.034,-0.852,-0.4629999999999999,3.2085648,10.1986524,1.7761698,61.35807222,1.9595163600000003,-57.55936068,T02,0
3.35,335,0.039,-0.856,-0.465,3.2658606,10.4278356,1.3750992,61.38672012000001,1.99962342,-57.45622824000001,T02,0
3.36,336,0.046,-0.857,-0.467,3.5523396000000003,10.6570188,0.9740286,61.42682718,2.03973048,-57.35882538,T02,0
3.37,337,0.053,-0.8590000000000001,-0.471,3.724227,10.5424272,0.6875496,61.46693424,2.07983754,-57.26142252,T02,0
3.38,338,0.061,-0.8640000000000001,-0.473,3.8961144,10.313244,0.3437748,61.50704129999999,2.12567418,-57.16974924,T02,0
3.39,339,0.065,-0.868,-0.474,4.010706000000001,9.7975818,0.0,61.54714836000001,2.17151082,-57.08380553999999,T02,0
3.4,340,0.069,-0.872,-0.479,3.8961144,9.0527364,-0.1145916,61.57579626,2.22880662,-56.99786184000001,T02,0
3.41,341,0.071,-0.8759999999999999,-0.481,3.9534102,8.479778399999999,-0.1145916,61.61590332,2.26891368,-56.92337730000001,T02,0
3.42,342,0.071,-0.88,-0.491,3.7815228,7.6776372,-0.0572958,61.65601038,2.30329116,-56.85462234000001,T02,0
3.43,343,0.066,-0.889,-0.491,4.010706000000001,7.333862400000001,-0.1145916,61.70184702,2.3376686399999995,-56.79159696000001,T02,0
3.44,344,0.062,-0.892,-0.487,3.724227,7.2192707999999985,-0.4010705999999999,61.74195407999999,2.37204612,-56.72857157999999,T02,0
3.45,345,0.064,-0.897,-0.487,3.6096354,7.0473834,-0.5156622000000001,61.75914282,2.42361234,-56.66554620000001,T02,0
3.46,346,0.069,-0.901,-0.49,3.3231564,6.589017,-0.4010705999999999,61.7935203,2.45798982,-56.60825040000001,T02,0
3.47,347,0.071,-0.903,-0.489,3.0939732,6.0733548,-0.2291832000000001,61.82789778,2.48663772,-56.55668418000001,T02,0
3.48,348,0.073,-0.905,-0.49,2.8074942000000003,5.3285094000000015,-0.0572958,61.85654568,2.51528562,-56.51084754,T02,0
3.49,349,0.075,-0.907,-0.491,2.4064236,4.4690724,0.0572958,61.88519358,2.53247436,-56.47074048,T02,0
3.5,350,0.079,-0.907,-0.49,2.0626488000000003,3.6096354,0.286479,61.87373441999999,2.58404058,-56.42490384,T02,0
3.51,351,0.08,-0.906,-0.488,1.8334656000000005,2.6356068,0.5156622000000001,61.89665274,2.58977016,-56.40198552,T02,0
3.52,352,0.077,-0.904,-0.49,1.3750992,1.6615782,0.7448454000000001,61.9081119,2.58977016,-56.3790672,T02,0
3.53,353,0.074,-0.902,-0.487,1.0886202,0.9740286,0.8594370000000001,61.91957106,2.58977016,-56.36760803999999,T02,0
3.54,354,0.073,-0.901,-0.485,0.8594370000000001,0.572958,0.9740286,61.93103021999999,2.58404058,-56.35614888,T02,0
3.55,355,0.07,-0.901,-0.483,0.4583664000000001,0.286479,0.9740286,61.83362736,2.6699842800000004,-56.32750098,T02,0
3.56,356,0.067,-0.899,-0.481,0.2291832000000001,0.0,0.9167328,61.83362736,2.65852512,-56.3217714,T02,0
3.57,357,0.069,-0.8959999999999999,-0.479,0.0,-0.0572958,0.7448454000000001,61.83362736,2.65279554,-56.3217714,T02,0
3.58,358,0.069,-0.8909999999999999,-0.478,-0.286479,-0.4583664000000001,0.6875496,61.83362736,2.6413363800000003,-56.3217714,T02,0
3.59,359,0.068,-0.8859999999999999,-0.473,-0.4010705999999999,-1.0886202,0.5156622000000001,61.82789778,2.6356068,-56.33323056,T02,0
3.6,360,0.07,-0.883,-0.474,-0.4583664000000001,-2.0053530000000004,0.4010705999999999,61.77060198,2.67571386,-56.33323056,T02,0
3.61,361,0.071,-0.883,-0.474,-0.4010705999999999,-2.8074942000000003,0.4010705999999999,61.7648724,2.65852512,-56.35614888,T02,0
3.62,362,0.069,-0.8809999999999999,-0.472,-0.572958,-3.5523396000000003,0.3437748,61.75914282,2.6413363800000003,-56.38479678,T02,0
3.63,363,0.064,-0.877,-0.471,-0.6302538000000001,-4.010706000000001,0.286479,61.74768365999999,2.61841806,-56.41917426,T02,0
3.64,364,0.06,-0.872,-0.47,-0.5156622000000001,-4.4690724,0.286479,61.74195407999999,2.59549974,-56.45928131999999,T02,0
3.65,365,0.059,-0.8740000000000001,-0.4679999999999999,-0.4010705999999999,-4.7555514,0.286479,61.71330618,2.58977016,-56.49365879999999,T02,0
3.66,366,0.057,-0.875,-0.465,-0.4010705999999999,-5.0993262,0.4010705999999999,61.7075766,2.56685184,-56.53949544,T02,0
3.67,367,0.049,-0.873,-0.47,-0.4583664000000001,-5.3858052,0.5156622000000001,61.70184702,2.53820394,-56.58533208,T02,0
3.68,368,0.042,-0.868,-0.4679999999999999,-0.4583664000000001,-5.3285094000000015,0.6875496,61.69611744,2.50382646,-56.63116872000001,T02,0
3.69,369,0.0409999999999999,-0.865,-0.47,-0.4583664000000001,-5.6149884000000005,0.6302538000000001,61.69038786,2.47517856,-56.67700536,T02,0
3.7,370,0.046,-0.866,-0.471,-0.1718874,-6.130650599999999,0.4010705999999999,61.65601038,2.45226024,-56.72284200000001,T02,0
3.71,371,0.048,-0.8690000000000001,-0.469,0.0,-6.6463128000000005,0.2291832000000001,61.65601038,2.41788276,-56.78586738,T02,0
3.72,372,0.047,-0.871,-0.469,0.0,-6.9327918,0.3437748,61.65601038,2.38350528,-56.84316318,T02,0
3.73,373,0.044,-0.872,-0.474,0.1145916,-7.1046792000000005,0.5156622000000001,61.65601038,2.3491278,-56.90618856,T02,0
3.74,374,0.0409999999999999,-0.873,-0.47,0.2291832000000001,-7.1046792000000005,0.572958,61.65601038,2.30902074,-56.96348436,T02,0
3.75,375,0.037,-0.875,-0.476,0.4010705999999999,-7.2192707999999985,0.4583664000000001,61.63309206,2.2746432600000004,-57.02650974,T02,0
3.76,376,0.0289999999999999,-0.88,-0.475,0.572958,-7.448453999999999,0.4583664000000001,61.63882163999999,2.2345362,-57.08953512000001,T02,0
3.77,377,0.027,-0.885,-0.477,0.4010705999999999,-7.161975,0.4583664000000001,61.64455122,2.20015872,-57.14683092,T02,0
3.78,378,0.026,-0.887,-0.478,0.1718874,-6.990087599999999,0.3437748,61.64455122,2.1657812400000003,-57.2098563,T02,0
3.79,379,0.026,-0.888,-0.479,0.0,-6.875496000000001,0.286479,61.64455122,2.13140376,-57.2671521,T02,0
3.8,380,0.0289999999999999,-0.8909999999999999,-0.483,0.0572958,-6.9327918,0.1718874,61.62163290000001,2.0912967,-57.33017748,T02,0
3.81,381,0.026,-0.893,-0.479,-0.0572958,-7.333862400000001,0.1145916,61.61590332,2.05691922,-57.39320286,T02,0
3.82,382,0.022,-0.892,-0.476,-0.0572958,-7.5057497999999985,0.286479,61.61590332,2.02254174,-57.45622824000001,T02,0
3.83,383,0.019,-0.893,-0.48,-0.4010705999999999,-7.6203414,0.3437748,61.61017374000001,1.98243468,-57.52498320000001,T02,0
3.84,384,0.015,-0.893,-0.481,-0.6302538000000001,-7.5630456000000015,0.4583664000000001,61.59871458,1.9480572000000005,-57.58800857999999,T02,0
3.85,385,0.009,-0.89,-0.481,-0.572958,-7.2192707999999985,0.4583664000000001,61.57579626,1.8907614,-57.65103395999999,T02,0
3.86,386,0.006,-0.89,-0.478,-0.572958,-6.703608600000001,0.4010705999999999,61.5643371,1.85638392,-57.70832975999999,T02,0
3.87,387,0.005,-0.889,-0.476,-0.4583664000000001,-6.130650599999999,0.286479,61.55860752,1.82773602,-57.75989598,T02,0
3.88,388,0.006,-0.889,-0.475,-0.572958,-5.443101,0.3437748,61.55287794,1.79908812,-57.80573262,T02,0
3.89,389,0.008,-0.888,-0.478,-0.6302538000000001,-4.8128472,0.286479,61.54714836000001,1.7761698,-57.85156926,T02,0
3.9,390,0.006,-0.888,-0.475,-0.7448454000000001,-4.2398892,0.3437748,61.51277088000001,1.7246035799999997,-57.88594674,T02,0
3.91,391,0.006,-0.8859999999999999,-0.477,-0.8021411999999999,-3.8388186,0.4010705999999999,61.50704129999999,1.70168526,-57.92032422,T02,0
3.92,392,0.008,-0.885,-0.476,-0.8021411999999999,-3.8388186,0.5156622000000001,61.49558214,1.6787669399999998,-57.94897212000001,T02,0
3.93,393,0.012,-0.887,-0.473,-0.572958,-4.1252976000000015,0.6875496,61.48985256,1.6558486199999998,-57.9833496,T02,0
3.94,394,0.008,-0.887,-0.475,-0.572958,-4.4117766,0.8594370000000001,61.48412298,1.6272007199999998,-58.01772708,T02,0
3.95,395,0.0,-0.885,-0.475,-0.5156622000000001,-4.4117766,0.9167328,61.45547508000001,1.56417534,-58.05783414,T02,0
3.96,396,-0.006,-0.8809999999999999,-0.475,-0.5156622000000001,-3.7815228,1.145916,61.44974549999999,1.53552744,-58.08075246000001,T02,0
3.97,397,-0.009,-0.877,-0.475,-0.572958,-3.151269,1.3750992,61.44401592000001,1.51260912,-58.10367078,T02,0
3.98,398,-0.006,-0.8740000000000001,-0.475,-0.4010705999999999,-2.3491278,1.4896908000000002,61.43828634000001,1.4896908000000002,-58.12085952,T02,0
3.99,399,-0.002,-0.8759999999999999,-0.476,-0.286479,-1.7761698,1.6615782,61.43255676,1.46677248,-58.1265891,T02,0
4.0,400,0.0,-0.875,-0.478,-0.286479,-1.2032118,1.8334656000000005,61.38099053999999,1.39801752,-58.13231868,T02,0
4.01,401,0.0,-0.8740000000000001,-0.477,-0.2291832000000001,-0.7448454000000001,1.9480572,61.37526096000001,1.3750992,-58.1265891,T02,0
4.02,402,0.0,-0.873,-0.475,-0.286479,-0.286479,1.7761698,61.37526096000001,1.3579104599999998,-58.12085952,T02,0
4.03,403,0.0,-0.875,-0.48,-0.2291832000000001,0.1145916,1.7188740000000002,61.37526096000001,1.34072172,-58.10940036,T02,0
4.04,404,0.003,-0.875,-0.479,-0.3437748,0.3437748,1.432395,61.36953138,1.32926256,-58.10367078,T02,0
4.05,405,0.006,-0.875,-0.479,-0.3437748,0.4010705999999999,1.2605076000000002,61.28931726,1.27769634,-58.09221162,T02,0
4.06,406,0.005,-0.875,-0.479,-0.4010705999999999,0.5156622000000001,1.145916,61.28931726,1.27196676,-58.08075246000001,T02,0
4.07,407,0.004,-0.873,-0.479,-0.4010705999999999,0.8021411999999999,1.0313244,61.28358768,1.26623718,-58.06929330000001,T02,0
4.08,408,0.001,-0.871,-0.477,-0.286479,0.9740286,0.9740286,61.2778581,1.2605076000000002,-58.05210456,T02,0
4.09,409,0.002,-0.8740000000000001,-0.479,-0.1145916,1.2605076000000002,0.9740286,61.2778581,1.2605076000000002,-58.0406454,T02,0
4.1,410,0.0069999999999999,-0.8759999999999999,-0.482,-0.1145916,1.4896908000000002,1.145916,61.22056230000001,1.2318597,-58.01772708,T02,0
4.109999999999999,411,0.0069999999999999,-0.878,-0.483,-0.0572958,1.6042823999999998,1.3750992,61.22056230000001,1.22613012,-57.99480876,T02,0
4.12,412,0.006,-0.879,-0.484,0.0,1.5469866,1.6042823999999998,61.22056230000001,1.21467096,-57.97189044,T02,0
4.13,413,0.002,-0.879,-0.482,-0.1145916,1.6042823999999998,1.7761698,61.22056230000001,1.20894138,-57.94897212000001,T02,0
4.14,414,-0.002,-0.879,-0.48,-0.0572958,1.7761698,1.6042823999999998,61.22056230000001,1.2032117999999998,-57.92605379999999,T02,0
4.15,415,-0.001,-0.879,-0.48,-0.1145916,2.2345362,1.3178034,61.18045524,1.1688343199999998,-57.90313548,T02,0
4.16,416,0.002,-0.88,-0.481,0.0,2.6929026,1.0886202,61.18045524,1.1745639,-57.87448758000001,T02,0
4.17,417,0.009,-0.883,-0.486,-0.1718874,2.6356068,0.9167328,61.18045524,1.1745639,-57.84583968000001,T02,0
4.18,418,0.0139999999999999,-0.883,-0.488,-0.1718874,2.6356068,0.8594370000000001,61.17472566,1.18029348,-57.81719178,T02,0
4.19,419,0.016,-0.8859999999999999,-0.49,-0.1145916,2.5210152000000003,0.8594370000000001,61.17472566,1.18602306,-57.78854388,T02,0
4.2,420,0.013,-0.888,-0.4970000000000001,-0.286479,2.4064236,0.9740286,61.12315944,1.1745639,-57.75989598,T02,0
4.21,421,0.005,-0.889,-0.502,-0.286479,2.2345362,1.0313244,61.11742986,1.1745639,-57.73697766,T02,0
4.22,422,0.0,-0.889,-0.499,-0.286479,2.291832,0.8594370000000001,61.11742986,1.18029348,-57.70832975999999,T02,0
4.23,423,0.003,-0.894,-0.5,-0.3437748,2.5210152000000003,0.8594370000000001,61.11170028,1.18029348,-57.68541144,T02,0
4.24,424,0.006,-0.9,-0.4970000000000001,-0.3437748,2.578311,0.9740286,61.10597070000001,1.18602306,-57.65676354000001,T02,0
4.25,425,0.01,-0.904,-0.507,-0.8594370000000001,2.5210152000000003,1.2032118,61.06013406,1.18029348,-57.62238606,T02,0
4.26,426,0.013,-0.905,-0.515,-1.432395,2.2345362,1.6615782,61.04294532,1.1745639,-57.59946774,T02,0
4.27,427,0.008,-0.908,-0.508,-1.4896908000000002,1.5469866,2.1199446,61.03148616,1.16310474,-57.57081984,T02,0
4.28,428,0.004,-0.914,-0.512,-1.6042823999999998,0.9167328,2.5210152000000003,61.01429741999999,1.1459160000000002,-57.5536311,T02,0
4.29,429,0.009,-0.915,-0.51,-2.0626488000000003,0.572958,3.0366774,60.9913791,1.12299768,-57.53071278,T02,0
4.3,430,0.013,-0.916,-0.501,-2.0626488000000003,-0.0572958,3.6096354,60.95700161999999,1.08289062,-57.51352404000001,T02,0
4.31,431,0.005,-0.919,-0.51,-2.3491278,-0.6302538000000001,4.1825934,60.9340833,1.04278356,-57.50206488,T02,0
4.32,432,-0.015,-0.919,-0.529,-3.0366774,0.0,4.8701430000000006,60.9054354,1.0026765,-57.47914656,T02,0
4.33,433,-0.025,-0.92,-0.525,-2.9220858,0.9740286,5.443101,60.87105792,0.95683986,-57.44476908,T02,0
4.34,434,-0.025,-0.928,-0.514,-2.4637194,1.6615782,5.7868758000000025,60.84813959999999,0.91100322,-57.39893244,T02,0
4.35,435,-0.006,-0.938,-0.535,-3.0939732,2.1772404,6.2452422,60.80230296,0.86516658,-57.34736622000001,T02,0
4.36,436,0.009,-0.947,-0.545,-3.7815228,1.9480572,7.2192707999999985,60.76219590000001,0.8078707799999998,-57.2958,T02,0
4.37,437,0.012,-0.955,-0.529,-3.7815228,1.3178034,7.9641161999999985,60.72781842000001,0.7448454000000001,-57.24996336,T02,0
4.38,438,0.012,-0.955,-0.534,-4.3544808,0.572958,8.479778399999999,60.68198178,0.67609044,-57.20412672,T02,0
4.39,439,0.003,-0.948,-0.537,-5.3858052,0.1718874,8.7662574,60.62468598,0.6016058999999999,-57.15829008000001,T02,0
4.4,440,-0.01,-0.927,-0.521,-6.8182002000000015,0.4583664000000001,8.7662574,60.55020144,0.5156622000000001,-57.11245344,T02,0
4.41,441,-0.011,-0.919,-0.522,-7.5057497999999985,1.2032118,8.8235532,60.4757169,0.44690724,-57.05515764,T02,0
4.42,442,0.0,-0.908,-0.542,-8.8235532,1.7761698,9.0527364,60.38404362,0.3724227000000001,-56.99786184000001,T02,0
4.43,443,0.0,-0.9,-0.541,-8.250595200000001,1.432395,9.224623800000002,60.303829500000006,0.29793816,-56.94056604,T02,0
4.44,444,0.0,-0.9,-0.529,-7.6203414,1.5469866,8.9954406,60.22361538,0.2291832,-56.88327024,T02,0
4.45,445,0.003,-0.902,-0.519,-7.6203414,1.432395,8.9954406,60.13767168,0.16042824,-56.82597444,T02,0
4.46,446,0.004,-0.906,-0.528,-7.6203414,1.4896908000000002,8.7089616,60.06318714,0.0859437,-56.76867864,T02,0
4.47,447,-0.001,-0.904,-0.528,-7.8495246,1.2032118,8.9954406,59.98297302,0.01718874,-56.71711241999999,T02,0
4.48,448,-0.0139999999999999,-0.901,-0.516,-7.2765666,0.9167328,9.224623800000002,59.90848848,-0.0572958,-56.65981662,T02,0
4.49,449,-0.02,-0.902,-0.509,-6.875496000000001,0.6875496,9.0527364,59.83973352,-0.13178034,-56.60825040000001,T02,0
4.5,450,-0.021,-0.899,-0.5429999999999999,-7.161975,0.6302538000000001,8.9381448,59.74806024000001,-0.21199446,-56.55668418000001,T02,0
4.51,451,-0.024,-0.901,-0.5539999999999999,-7.161975,1.0886202,8.7662574,59.6735757,-0.28074942,-56.50511795999999,T02,0
4.52,452,-0.027,-0.912,-0.53,-6.016058999999999,1.2605076000000002,8.651665800000002,59.61055032,-0.34950438,-56.45355174,T02,0
4.53,453,-0.031,-0.92,-0.527,-5.844171599999999,1.2032118,8.59437,59.54752494,-0.41825934,-56.40198552,T02,0
4.54,454,-0.034,-0.928,-0.544,-6.417129599999999,1.4896908000000002,8.651665800000002,59.48449956,-0.4870143000000001,-56.34468972,T02,0
4.55,455,-0.044,-0.935,-0.5820000000000001,-7.6203414,2.8074942000000003,8.651665800000002,59.39282628,-0.55576926,-56.27593476,T02,0
4.56,456,-0.031,-0.956,-0.579,-7.5630456000000015,5.7868758000000025,8.651665800000002,59.31834174,-0.6016058999999999,-56.1785319,T02,0
4.57,457,-0.006,-0.977,-0.5760000000000001,-7.333862400000001,6.703608600000001,8.880849000000003,59.23812762,-0.64744254,-56.08112903999999,T02,0
4.58,458,0.0069999999999999,-0.997,-0.583,-6.875496000000001,5.6722842,9.3965112,59.16937266,-0.70473834,-55.98372618000001,T02,0
4.59,459,-0.002,-1.027,-0.62,-7.8495246,4.8128472,10.1413566,59.08342895999999,-0.76776372,-55.8920529,T02,0
4.6,460,-0.013,-1.042,-0.652,-10.3705398,4.1252976000000015,10.7716104,58.97456694,-0.8422482600000001,-55.80037962,T02,0
4.61,461,-0.0069999999999999,-1.058,-0.6809999999999999,-11.5737516,4.3544808,11.172681,58.85424576000001,-0.9167328,-55.70297676,T02,0
4.62,462,0.01,-1.095,-0.6970000000000001,-12.261301199999998,4.5263682,11.688343199999998,58.72819500000001,-0.9912173399999998,-55.6055739,T02,0
4.63,463,0.009,-1.119,-0.682,-13.3499214,4.010706000000001,12.6623718,58.59068508,-1.08289062,-55.50817104,T02,0
4.64,464,-0.006,-1.118,-0.6729999999999999,-13.6936962,3.0939732,13.178034,58.44744558,-1.18029348,-55.41076817999999,T02,0
4.65,465,-0.032,-1.1,-0.6729999999999999,-14.8396122,3.380452200000001,13.178034,58.29274692,-1.27769634,-55.31336532,T02,0
4.66,466,-0.045,-1.077,-0.706,-15.9855282,5.1566220000000005,12.4331886,58.1265891,-1.36364004,-55.20450329999999,T02,0
4.67,467,-0.034,-1.071,-0.715,-16.2147114,7.2765666,11.45916,57.96043128,-1.4209358399999998,-55.08418212,T02,0
4.68,468,-0.021,-1.077,-0.696,-15.5844576,8.651665800000002,10.5424272,57.80000303999999,-1.47250206,-54.95813136,T02,0
4.69,469,-0.017,-1.073,-0.669,-15.3552744,9.453807,9.8548776,57.63384522,-1.50687954,-54.82635102,T02,0
4.7,470,-0.019,-1.055,-0.693,-15.527161800000002,9.6829902,9.3965112,57.4676874,-1.5412570200000002,-54.69457067999999,T02,0
4.71,471,-0.006,-1.031,-0.674,-16.2147114,9.6829902,8.651665800000002,57.30152958,-1.56417534,-54.56279034000001,T02,0
4.72,472,0.008,-0.991,-0.634,-15.9855282,8.193299399999999,7.8495246,57.13537176,-1.5870936600000003,-54.45392832,T02,0
4.73,473,0.016,-0.971,-0.645,-13.5791046,6.130650599999999,6.9327918,56.99213225999999,-1.6157415599999996,-54.36798462,T02,0
4.74,474,0.018,-0.963,-0.631,-12.7196676,5.6149884000000005,6.130650599999999,56.86035191999999,-1.64438946,-54.28777049999999,T02,0
4.75,475,0.012,-0.946,-0.623,-11.5737516,6.2452422,5.3858052,56.73430116,-1.64438946,-54.201826800000006,T02,0
4.76,476,0.005,-0.932,-0.634,-9.8548776,6.875496000000001,4.8701430000000006,56.63116872000001,-1.65011904,-54.1158831,T02,0
4.77,477,0.009,-0.944,-0.644,-7.448453999999999,7.6776372,5.2712136,56.5509546,-1.6558486199999998,-54.02420982,T02,0
4.78,478,0.012,-0.925,-0.618,-5.844171599999999,7.448453999999999,5.3858052,56.48792922,-1.6615782,-53.93253654,T02,0
4.79,479,0.003,-0.946,-0.61,-1.7761698,7.333862400000001,5.6722842,56.4650109,-1.67303736,-53.840863260000006,T02,0
4.8,480,-0.008,-0.944,-0.635,-1.7761698,7.6776372,6.016058999999999,56.43636299999999,-1.6787669399999998,-53.73773082,T02,0
4.81,481,-0.02,-0.924,-0.617,-1.432395,7.5057497999999985,5.958763200000001,56.41917426,-1.6902260999999998,-53.64605754,T02,0
4.82,482,-0.032,-0.903,-0.601,-0.0572958,6.417129599999999,5.6722842,56.41344468,-1.70168526,-53.56011384000001,T02,0
4.83,483,-0.02,-0.8959999999999999,-0.619,1.3178034,7.0473834,4.7555514,56.42490384,-1.7074148399999998,-53.47417014,T02,0
4.84,484,-0.001,-0.9,-0.64,1.4896908000000002,8.5370742,4.1252976000000015,56.43636299999999,-1.6959556799999995,-53.37676728,T02,0
4.85,485,0.012,-0.895,-0.629,2.4064236,9.568398599999998,3.3231564,56.43636299999999,-1.6558486199999998,-53.27363484,T02,0
4.86,486,0.013,-0.904,-0.645,4.3544808,10.026765,2.4637194,56.47647006,-1.62147114,-53.17623198,T02,0
4.87,487,0.008,-0.915,-0.645,5.72958,10.6570188,1.8334656000000005,56.53376586,-1.5813640800000002,-53.07309954,T02,0
4.88,488,0.012,-0.923,-0.644,7.333862400000001,10.4278356,1.7188740000000002,56.60252082,-1.5412570200000002,-52.97569668,T02,0
4.89,489,0.024,-0.93,-0.649,8.078707799999998,9.3965112,2.3491278,56.68273494,-1.51260912,-52.8840234,T02,0
4.9,490,0.038,-0.927,-0.647,8.7089616,8.078707799999998,2.86479,56.75721948,-1.4782316400000002,-52.7980797,T02,0
4.91,491,0.051,-0.939,-0.65,9.5111028,6.703608600000001,3.8388186,56.84889276,-1.47250206,-52.71786558,T02,0
4.92,492,0.055,-0.912,-0.6509999999999999,9.9694692,5.9014674000000005,4.297185,56.9520252,-1.4782316400000002,-52.64338104000001,T02,0
4.93,493,0.061,-0.911,-0.625,12.0894138,4.5263682,4.3544808,57.07234638,-1.4896908000000002,-52.58035566,T02,0
4.94,494,0.061,-0.897,-0.623,12.605076,3.2658606,4.1825934,57.19839714,-1.50687954,-52.52878943999999,T02,0
4.95,495,0.055,-0.879,-0.62,14.667724800000002,2.578311,3.2658606,57.33017748,-1.49542038,-52.48295279999999,T02,0
4.96,496,0.055,-0.88,-0.612,16.959556799999998,2.0626488000000003,2.4064236,57.4963353,-1.50114996,-52.4543049,T02,0
4.97,497,0.059,-0.884,-0.599,18.334656,1.6042823999999998,2.0626488000000003,57.68541144,-1.51260912,-52.425657,T02,0
4.98,498,0.059,-0.884,-0.586,20.2254174,0.3437748,2.291832,57.89167632,-1.52406828,-52.40846826000001,T02,0
4.99,499,0.064,-0.883,-0.57,22.5745452,-1.0886202,2.6356068,58.12085952,-1.5527161800000002,-52.40273868000001,T02,0
5.0,500,0.07,-0.888,-0.575,24.1215318,-2.5210152000000003,3.151269,58.3557723,-1.56417534,-52.40273868000001,T02,0
5.01,501,0.076,-0.89,-0.583,25.3820394,-3.2658606,3.724227,58.6136034,-1.61001198,-52.40846826000001,T02,0
5.02,502,0.081,-0.908,-0.563,27.1582092,-3.7815228,4.4117766,58.88862324,-1.6615782,-52.41992742,T02,0
5.03,503,0.073,-0.91,-0.551,27.6165756,-4.6982556,5.3285094000000015,59.17510224,-1.73033316,-52.43138658,T02,0
5.04,504,0.07,-0.91,-0.575,28.5906042,-5.7868758000000025,6.130650599999999,59.46158124,-1.8048177,-52.44857532,T02,0
5.05,505,0.065,-0.904,-0.541,28.762491600000004,-7.5630456000000015,6.3598338,59.75378982,-1.87930224,-52.477223220000006,T02,0
5.06,506,0.051,-0.8959999999999999,-0.512,28.6479,-9.5111028,6.016058999999999,60.05172798,-1.97097552,-52.52878943999999,T02,0
5.07,507,0.045,-0.892,-0.508,29.220858000000003,-11.745639,5.2712136,60.34966614,-2.06837838,-52.60327398,T02,0
5.08,508,0.0409999999999999,-0.868,-0.474,28.3041252,-14.381245800000002,3.8961144,60.64187472,-2.1657812400000003,-52.70640641999999,T02,0
5.09,509,0.048,-0.843,-0.441,29.335449600000004,-17.3606274,1.4896908000000002,60.951272040000006,-2.25745452,-52.84964592,T02,0
5.1,510,0.047,-0.8170000000000001,-0.417,27.3300966,-18.7930224,-1.0313244,61.23775104,-2.3147503200000004,-53.01580374,T02,0
5.11,511,0.039,-0.7829999999999999,-0.413,28.2468294,-19.308684600000007,-3.4377480000000005,61.52995962,-2.36631654,-53.20487988,T02,0
5.12,512,0.025,-0.747,-0.384,29.621928600000004,-19.8816426,-5.0993262,61.84508652000001,-2.4064236,-53.39968560000001,T02,0
5.13,513,0.01,-0.706,-0.318,31.111619399999995,-19.8816426,-6.2452422,62.171672580000006,-2.4350715000000003,-53.60595048,T02,0
5.14,514,-0.02,-0.6509999999999999,-0.249,32.142943800000005,-19.9962342,-6.3598338,62.5097178,-2.4637194,-53.81221536,T02,0
5.15,515,-0.046,-0.6,-0.273,32.372127,-19.480572,-5.3285094000000015,62.84776302,-2.49809688,-54.00702108,T02,0
5.16,516,-0.0579999999999999,-0.595,-0.295,33.9191136,-18.2200644,-3.6669312000000014,63.20299698,-2.53820394,-54.18463806000001,T02,0
5.17,517,-0.069,-0.596,-0.261,34.3201842,-18.3919518,-1.4896908000000002,63.55823094,-2.6012293200000003,-54.35079588,T02,0
5.18,518,-0.089,-0.615,-0.203,32.4294228,-23.0329116,1.7761698,63.90200574000001,-2.70436176,-54.55133118,T02,0
5.19,519,-0.096,-0.624,-0.211,31.340802600000004,-29.335449600000004,6.875496000000001,64.23432138000001,-2.88197874,-54.78051438,T02,0
5.2,520,-0.078,-0.639,-0.156,34.1482968,-32.257535399999995,11.5164558,64.60674408,-3.11689152,-55.02115674,T02,0
5.21,521,-0.059,-0.6679999999999999,-0.133,36.32553720000001,-35.695283399999994,13.2353298,64.99635552,-3.3689930400000003,-55.29044700000001,T02,0
5.22,522,-0.073,-0.713,-0.207,36.7839036,-40.33624320000001,11.8029348,65.39742612,-3.63255372,-55.6055739,T02,0
5.23,523,-0.113,-0.727,-0.255,37.2995658,-37.9298196,7.1046792000000005,65.79849672,-3.8388186000000006,-55.92070079999999,T02,0
5.24,524,-0.155,-0.711,-0.251,39.3622146,-33.4607472,0.7448454000000001,66.22821522,-3.9648693599999993,-56.21863896,T02,0
5.25,525,-0.2019999999999999,-0.648,-0.249,40.5081306,-29.9084076,-4.6409598,66.6636633,-4.0393539,-56.51084754,T02,0
5.26,526,-0.243,-0.6,-0.205,43.831287,-27.1582092,-6.4744254,67.12775927999999,-4.07373138,-56.78586738,T02,0
5.27,527,-0.25,-0.584,-0.205,44.2323576,-28.5906042,-4.3544808,67.60331441999999,-4.131027179999999,-57.06088722,T02,0
5.28,528,-0.23,-0.607,-0.1889999999999999,44.117766,-31.9710564,-2.1772404,68.07886956,-4.21697088,-57.36455496,T02,0
5.29,529,-0.188,-0.623,-0.203,44.06047020000001,-31.913760600000003,-0.0572958,68.54869512,-4.320103319999999,-57.65676354000001,T02,0
5.3,530,-0.15,-0.627,-0.188,44.977203,-31.51269000000001,1.8907614,69.03570942,-4.4404245000000016,-57.94324253999999,T02,0
5.31,531,-0.124,-0.637,-0.182,47.3263308,-31.627281600000003,3.8388186,69.53991246000001,-4.57793442,-58.22399196,T02,0
5.32,532,-0.127,-0.637,-0.165,52.0245864,-29.621928600000004,6.130650599999999,70.09568172,-4.72117392,-58.47609348,T02,0
5.33,533,-0.134,-0.642,-0.1369999999999999,54.8893764,-26.5852512,6.4744254,70.6743693,-4.858683839999999,-58.6995471,T02,0
5.34,534,-0.162,-0.643,-0.127,58.6136034,-22.6891368,5.7868758000000025,71.28743435999998,-4.97327544,-58.89435282,T02,0
5.35,535,-0.185,-0.6890000000000001,-0.099,60.733548000000006,-16.157415599999997,4.6409598,71.92914732,-5.06494872,-59.02613315999999,T02,0
5.36,536,-0.216,-0.7170000000000001,-0.076,60.3324774,-10.4851314,3.2085648,72.55367154000002,-5.1222445200000015,-59.11207686,T02,0
5.37,537,-0.223,-0.754,-0.123,57.6968706,-7.6203414,1.7761698,73.14381828,-5.15089242,-59.17510224,T02,0
5.38,538,-0.223,-0.7440000000000001,-0.129,52.48295279999999,-4.010706000000001,0.6302538000000001,73.6823988,-5.16235158,-59.20947972,T02,0
5.39,539,-0.204,-0.782,-0.089,52.9413192,1.6615782,1.432395,74.21524974,-5.16808116,-59.1865614,T02,0
5.4,540,-0.158,-0.818,-0.145,51.10785360000001,5.72958,2.4064236,74.73091194,-5.17954032,-59.11780644,T02,0
5.41,541,-0.0969999999999999,-0.8340000000000001,-0.15,49.560867,9.740286,2.3491278,75.22365582,-5.17381074,-59.014674,T02,0
5.42,542,-0.054,-0.847,-0.178,45.72204840000001,11.688343199999998,1.7761698,75.67629264,-5.1566220000000005,-58.89435282,T02,0
5.43,543,-0.062,-0.863,-0.176,44.2896534,13.120738199999998,3.0366774,76.11174072,-5.1566220000000005,-58.75111332,T02,0
5.44,544,-0.106,-0.91,-0.1889999999999999,43.7166954,14.037471,5.6149884000000005,76.54145922000002,-5.17381074,-58.60214424,T02,0
5.45,545,-0.151,-0.944,-0.205,43.258329,15.126091199999998,8.7662574,76.95971856,-5.23683612,-58.43025684000001,T02,0
5.46,546,-0.179,-0.958,-0.221,41.252976,16.615782,10.7716104,77.36078916,-5.30559108,-58.2411807,T02,0
5.47,547,-0.162,-0.951,-0.24,41.76863820000001,19.2513888,10.8289062,77.76185976,-5.36861646,-58.02345666,T02,0
5.48,548,-0.13,-0.931,-0.257,42.685371,21.6005166,9.568398599999998,78.16865994000003,-5.42018268,-57.78854388,T02,0
5.49,549,-0.091,-0.908,-0.26,44.51883660000001,21.772404,7.8495246,78.59837844,-5.45456016,-57.55936068,T02,0
5.5,550,-0.057,-0.916,-0.271,45.0917946,21.772404,6.3025379999999975,79.02236736,-5.4717489000000015,-57.32444790000001,T02,0
5.51,551,-0.059,-0.927,-0.252,43.48751220000001,17.8762896,4.5263682,79.4406267,-5.48320806,-57.13537176,T02,0
5.52,552,-0.077,-0.908,-0.254,42.1697088,15.527161800000002,2.4064236,79.85315646,-5.47747848,-56.97494352,T02,0
5.53,553,-0.08,-0.894,-0.251,43.20103320000001,15.0114996,0.9167328,80.27714538,-5.46028974,-56.82024486,T02,0
5.54,554,-0.053,-0.899,-0.23,44.2896534,14.4958374,0.286479,80.70686388,-5.43737142,-56.67127578,T02,0
5.55,555,-0.034,-0.918,-0.218,44.34694920000001,12.1467096,0.286479,81.1308528,-5.414453099999999,-56.54522502,T02,0
5.56,556,-0.045,-0.946,-0.203,45.3782736,8.7662574,0.1145916,81.58348962,-5.40299394,-56.45355174,T02,0
5.57,557,-0.084,-0.978,-0.206,43.48751220000001,4.4117766,0.5156622000000001,82.0189377,-5.397264359999999,-56.40198552,T02,0
5.58,558,-0.119,-1.009,-0.188,40.4508348,1.5469866,1.3178034,82.42573788,-5.40299394,-56.38479678,T02,0
5.59,559,-0.146,-1.015,-0.176,37.1849742,0.0,0.4010705999999999,82.80389016000002,-5.40299394,-56.3790672,T02,0
5.6,560,-0.182,-1.014,-0.196,35.8671708,-0.0572958,-1.3750992,83.15339454,-5.40299394,-56.37333762000001,T02,0
5.61,561,-0.2019999999999999,-1.019,-0.166,36.38283300000001,2.9220858,-3.8961144,83.52008766,-5.3628868800000005,-56.34468972,T02,0
5.62,562,-0.2189999999999999,-1.013,-0.133,37.0130868,8.078707799999998,-7.0473834,83.88678078000002,-5.2826727600000005,-56.27020517999999,T02,0
5.63,563,-0.242,-0.996,-0.12,36.7839036,13.464512999999998,-9.9121734,84.24774432000002,-5.16808116,-56.14415441999999,T02,0
5.64,564,-0.261,-0.975,-0.099,35.6379876,18.3919518,-12.605076,84.59151912,-5.03057124,-55.96653744,T02,0
5.65,565,-0.245,-0.941,-0.078,33.9764094,24.8090814,-14.9542038,84.91237559999998,-4.87587258,-55.73162466,T02,0
5.66,566,-0.204,-0.905,-0.081,32.945085,31.9710564,-15.870936600000002,85.21604334,-4.6982556,-55.42222733999999,T02,0
5.67,567,-0.161,-0.913,-0.111,30.9970278,39.3622146,-14.896907999999998,85.49106318,-4.5263682,-55.04407506,T02,0
5.68,568,-0.1,-0.943,-0.123,28.81978740000001,44.51883660000001,-12.7769634,85.7431647,-4.37739912,-54.60862698000001,T02,0
5.69,569,-0.066,-1.002,-0.145,26.4706596,47.7274014,-9.568398599999998,85.9723479,-4.25707794,-54.13880142000001,T02,0
5.7,570,-0.046,-1.083,-0.159,24.7517856,48.6441342,-7.1046792000000005,86.17288319999999,-4.15967508,-53.6575167,T02,0
5.71,571,-0.045,-1.147,-0.156,21.829699800000004,46.5241896,-6.1879464,86.35622975999998,-4.0794609600000005,-53.1991503,T02,0
5.72,572,-0.047,-1.16,-0.172,19.0222056,40.7373138,-5.6149884000000005,86.51665799999998,-4.010706,-52.79235012,T02,0
5.73,573,-0.063,-1.135,-0.198,19.0222056,34.7212548,-5.5003968,86.67708624000002,-3.94195104,-52.44857532,T02,0
5.74,574,-0.065,-1.06,-0.174,19.4232762,31.8564648,-5.844171599999999,86.84897364,-3.873196080000002,-52.139178,T02,0
5.75,575,-0.055,-0.996,-0.143,19.2513888,28.762491600000004,-5.72958,87.00940188,-3.80444112,-51.84696941999999,T02,0
5.76,576,-0.046,-0.955,-0.1119999999999999,18.9649098,25.6112226,-5.5576926,87.18128928,-3.74141574,-51.59486790000001,T02,0
5.77,577,-0.05,-0.961,-0.089,17.761698000000006,22.8037284,-5.0993262,87.34171752,-3.68411994,-51.37141428,T02,0
5.78,578,-0.052,-0.978,-0.072,16.157415599999997,19.3659804,-4.6409598,87.49068659999998,-3.63255372,-51.17660856,T02,0
5.79,579,-0.046,-0.999,-0.071,12.605076,17.4179232,-4.1252976000000015,87.6052782,-3.58671708,-51.00472116,T02,0
5.8,580,-0.019,-1.02,-0.078,8.880849000000003,16.501190400000002,-3.0366774,87.66257399999998,-3.5351508600000003,-50.83856333999999,T02,0
5.81,581,0.0139999999999999,-1.043,-0.1159999999999999,5.443101,14.381245800000002,-2.0053530000000004,87.70841064,-3.5122325400000003,-50.69532384,T02,0
5.82,582,0.035,-1.058,-0.1369999999999999,4.9274388,9.9121734,-1.6615782,87.74851770000002,-3.4950437999999995,-50.59792098,T02,0
5.83,583,0.044,-1.048,-0.131,5.5576926,2.1772404,-0.8594370000000001,87.8058135,-3.48931422,-50.57500266,T02,0
5.84,584,0.043,-1.019,-0.121,6.130650599999999,-4.0680017999999984,-0.1718874,87.86883888,-3.48358464,-50.61510972,T02,0
5.85,585,0.036,-0.991,-0.091,8.307891,-9.3965112,-0.6302538000000001,87.93759384,-3.44347758,-50.69532384,T02,0
5.86,586,0.0,-0.981,-0.066,8.9954406,-12.605076,-1.7188740000000002,88.03499670000002,-3.42628884,-50.82137460000001,T02,0
5.87,587,-0.045,-0.997,-0.048,7.8495246,-13.8655836,-3.2085648,88.12666998,-3.39764094,-50.95888452,T02,0
5.88,588,-0.074,-1.019,-0.0559999999999999,5.5576926,-13.5791046,-4.010706000000001,88.19542494,-3.35753388,-51.09639444,T02,0
5.89,589,-0.09,-1.035,-0.07,3.4377480000000005,-12.261301199999998,-4.1825934,88.23553199999998,-3.3116972399999995,-51.21671562,T02,0
5.9,590,-0.085,-1.026,-0.077,1.7188740000000002,-10.3705398,-3.151269,88.21834326000004,-3.28877892,-51.31411848000001,T02,0
5.91,591,-0.062,-1.003,-0.088,0.3437748,-8.880849000000003,-1.4896908000000002,88.22980242,-3.27731976,-51.40579176,T02,0
5.92,592,-0.0279999999999999,-0.985,-0.099,0.0572958,-8.9954406,-0.286479,88.23553199999998,-3.27159018,-51.49173546,T02,0
5.93,593,-0.005,-0.972,-0.095,0.8594370000000001,-11.745639,0.3437748,88.25845032,-3.27731976,-51.61205663999999,T02,0
5.94,594,0.004,-0.976,-0.08,1.7761698,-15.5844576,0.286479,88.28709822,-3.28304934,-51.761025720000006,T02,0
5.95,595,-0.004,-0.981,-0.059,3.2085648,-18.6784308,0.0,88.31574612,-3.2658606,-51.94437228,T02,0
5.96,596,-0.0279999999999999,-0.998,-0.044,5.3858052,-20.5118964,-0.6875496,88.38450107999998,-3.26013102,-52.14490758000001,T02,0
5.97,597,-0.055,-1.018,-0.0289999999999999,6.3025379999999975,-22.1734746,-1.6615782,88.4647152,-3.24294228,-52.3683612,T02,0
5.98,598,-0.086,-1.024,-0.015,6.6463128000000005,-23.0902074,-2.9793816000000004,88.5506589,-3.2085648000000004,-52.59181482,T02,0
5.99,599,-0.093,-1.024,-0.003,6.417129599999999,-21.772404,-3.9534102,88.63087302,-3.16845774,-52.80953886,T02,0
6.0,600,-0.085,-1.019,-0.011,5.2712136,-19.767051,-4.2398892,88.69389840000002,-3.12835068,-53.00434458,T02,0
6.01,601,-0.068,-1.011,-0.024,4.1252976000000015,-18.449247600000003,-3.8388186,88.74546462,-3.08824362,-53.193420720000006,T02,0
6.02,602,-0.053,-1.001,-0.0289999999999999,3.5523396000000003,-18.048177,-2.9793816000000004,88.79703083999998,-3.05959572,-53.3710377,T02,0
6.03,603,-0.043,-0.998,-0.02,3.380452200000001,-17.9908812,-2.0053530000000004,88.84286748000002,-3.0366774000000003,-53.54865468000001,T02,0
6.04,604,-0.031,-1.005,-0.006,3.4950437999999995,-17.589810600000003,-1.145916,88.88870412,-3.02521824,-53.72054208,T02,0
6.05,605,-0.026,-1.013,0.0,2.578311,-17.0168526,-0.286479,88.9230816,-3.0080295,-53.8866999,T02,0
6.06,606,-0.03,-1.017,-0.0069999999999999,1.5469866,-16.7876694,0.4010705999999999,88.9517295,-3.0080295,-54.05285772,T02,0
6.07,607,-0.035,-1.017,-0.011,1.6042823999999998,-17.5325148,0.9740286,88.98037740000002,-3.01948866,-54.2304747,T02,0
6.08,608,-0.036,-1.008,-0.006,1.6042823999999998,-17.9908812,0.6302538000000001,89.00902529999998,-3.02521824,-54.40809168000001,T02,0
6.09,609,-0.037,-1.005,-0.003,1.432395,-18.449247600000003,-0.1145916,89.03194361999998,-3.01948866,-54.59143824,T02,0
6.1,610,-0.039,-1.013,-0.005,1.2605076000000002,-18.9649098,-0.9740286,89.05486194,-3.00229992,-54.7747848,T02,0
6.11,611,-0.043,-1.016,-0.013,0.572958,-19.595163600000006,-1.3750992,89.07205067999998,-2.98511118,-54.96959052,T02,0
6.12,612,-0.046,-1.019,-0.026,-0.1145916,-19.480572,-1.432395,89.08350984,-2.96792244,-55.16439624,T02,0
6.13,613,-0.047,-1.015,-0.0279999999999999,-0.7448454000000001,-18.5638392,-1.3750992,89.08923942,-2.9507337,-55.347742800000006,T02,0
6.14,614,-0.05,-1.008,-0.024,-0.7448454000000001,-17.303331600000003,-1.2605076000000002,89.09496899999998,-2.93927454,-55.5196302,T02,0
6.15,615,-0.053,-1.009,-0.016,-1.0313244,-15.2979786,-1.432395,89.08350984,-2.9220858,-55.66859928,T02,0
6.16,616,-0.054,-1.016,-0.023,-1.3750992,-13.750992000000002,-1.7761698,89.07778026000004,-2.89916748,-55.80610920000001,T02,0
6.17,617,-0.054,-1.015,-0.039,-2.0626488000000003,-12.7196676,-2.1772404,89.06059152,-2.87624916,-55.93215996,T02,0
6.18,618,-0.054,-1.002,-0.044,-0.8594370000000001,-11.688343199999998,-2.578311,89.06059152,-2.84760126,-56.05248114,T02,0
6.19,619,-0.0579999999999999,-0.997,-0.032,0.0,-10.5424272,-2.9220858,89.06632110000002,-2.81895336,-56.15561358,T02,0
6.2,620,-0.059,-0.995,-0.018,0.572958,-8.9954406,-3.2085648,89.06632110000002,-2.79030546,-56.24155728000001,T02,0
6.21,621,-0.06,-1.005,-0.016,0.9167328,-8.021412000000002,-3.380452200000001,89.08350984,-2.75592798,-56.3217714,T02,0
6.22,622,-0.06,-1.013,-0.02,0.8594370000000001,-7.0473834,-3.380452200000001,89.09496899999998,-2.7215505,-56.39625594,T02,0
6.23,623,-0.055,-1.011,-0.018,1.7188740000000002,-5.9014674000000005,-3.3231564,89.11788732,-2.68717302,-56.45355174,T02,0
6.24,624,-0.047,-1.01,-0.01,2.291832,-5.042030400000002,-3.380452200000001,89.14080564,-2.65279554,-56.50511795999999,T02,0
6.25,625,-0.034,-1.005,-0.006,2.1772404,-4.2398892,-3.380452200000001,89.15799438,-2.6012293200000003,-56.54522502,T02,0
6.26,626,-0.034,-1.001,0.001,1.6615782,-4.583664,-3.5523396000000003,89.17518312,-2.56685184,-56.59106166,T02,0
6.27,627,-0.043,-0.999,0.004,0.3437748,-5.2712136,-3.7815228,89.1809127,-2.52674478,-56.64262788,T02,0
6.28,628,-0.048,-1.0,-0.001,-0.3437748,-5.5576926,-3.380452200000001,89.1809127,-2.4923673,-56.69419409999999,T02,0
6.29,629,-0.046,-1.008,0.0,-0.286479,-4.8128472,-2.4064236,89.1809127,-2.46944898,-56.74576032,T02,0
6.3,630,-0.039,-1.011,-0.005,-0.9167328,-2.9220858,-1.6615782,89.13507606,-2.44080108,-56.76867864,T02,0
6.31,631,-0.04,-1.014,-0.013,-0.8594370000000001,-0.1145916,-0.8594370000000001,89.12934648,-2.42934192,-56.76867864,T02,0
6.32,632,-0.038,-1.013,-0.0139999999999999,0.8021411999999999,1.4896908000000002,-0.286479,89.13507606,-2.42934192,-56.75721948,T02,0
6.33,633,-0.039,-1.016,-0.008,2.2345362,1.9480572,-0.286479,89.15799438,-2.42361234,-56.73430116,T02,0
6.34,634,-0.0409999999999999,-1.013,0.004,3.151269,1.6615782,-0.9167328,89.18664228,-2.41215318,-56.71711241999999,T02,0
6.35,635,-0.044,-1.011,0.012,3.2658606,1.145916,-1.432395,89.22674934,-2.40069402,-56.70565326,T02,0
6.36,636,-0.044,-1.009,0.015,2.8074942000000003,1.0313244,-1.7188740000000002,89.25539724,-2.3777757,-56.69419409999999,T02,0
6.37,637,-0.038,-1.009,0.012,2.1772404,1.7761698,-1.7188740000000002,89.27831556,-2.36058696,-56.67700536,T02,0
6.38,638,-0.032,-1.004,0.01,1.4896908000000002,2.6929026,-1.6615782,89.28977472,-2.3491278,-56.65408704,T02,0
6.39,639,-0.03,-0.996,0.008,1.4896908000000002,3.7815228,-1.7188740000000002,89.30123388000001,-2.33193906,-56.61397998,T02,0
6.4,640,-0.032,-0.994,0.009,1.9480572,4.010706000000001,-1.7188740000000002,89.31842262,-2.29756158,-56.57387292000001,T02,0
6.41,641,-0.032,-0.993,0.015,2.4637194,3.724227,-1.5469866,89.34134094,-2.28610242,-56.53376586,T02,0
6.42,642,-0.033,-0.997,0.018,2.2345362,3.6669312000000014,-1.3178034,89.36425926,-2.26891368,-56.499388380000006,T02,0
6.43,643,-0.0279999999999999,-0.998,0.016,1.3750992,3.5523396000000003,-1.2032118,89.37571842,-2.25745452,-56.4650109,T02,0
6.44,644,-0.026,-1.002,0.0139999999999999,0.9740286,3.4377480000000005,-1.0886202,89.38717758,-2.25172494,-56.43063342000001,T02,0
6.45,645,-0.027,-1.006,0.01,0.6302538000000001,3.2085648,-0.9740286,89.38144799999998,-2.21734746,-56.39052636,T02,0
6.46,646,-0.033,-1.014,0.004,0.9167328,3.5523396000000003,-0.9740286,89.39290716000002,-2.2058883,-56.35614888,T02,0
6.47,647,-0.04,-1.019,0.001,1.3750992,4.4117766,-1.2032118,89.40436632,-2.19442914,-56.31031224,T02,0
6.48,648,-0.046,-1.018,-0.002,1.6615782,5.2139178,-1.5469866,89.41582548,-2.18296998,-56.25874602,T02,0
6.49,649,-0.046,-1.016,0.0,1.9480572,6.1879464,-1.7188740000000002,89.43301421999998,-2.1657812400000003,-56.20145021999999,T02,0
6.5,650,-0.042,-1.014,0.0,2.1199446,6.589017,-1.7761698,89.44447338,-2.1485925000000003,-56.13269526000001,T02,0
6.51,651,-0.036,-1.014,0.001,1.7761698,6.589017,-1.8334656000000005,89.45593253999998,-2.13140376,-56.06966987999999,T02,0
6.52,652,-0.036,-1.009,0.0,1.0886202,6.1879464,-1.8907614,89.46739170000002,-2.10848544,-56.00664450000001,T02,0
6.53,653,-0.034,-1.008,-0.009,0.572958,6.1879464,-1.7761698,89.46739170000002,-2.0912967,-55.94361912,T02,0
6.54,654,-0.035,-1.008,-0.021,0.1718874,6.1879464,-1.6615782,89.46739170000002,-2.07983754,-55.88059374000001,T02,0
6.55,655,-0.034,-1.005,-0.0289999999999999,-0.0572958,5.958763200000001,-1.4896908000000002,89.42155505999996,-2.05691922,-55.81756836000001,T02,0
6.56,656,-0.033,-1.001,-0.033,0.0572958,6.130650599999999,-1.0886202,89.41582548,-2.04546006,-55.75454298,T02,0
6.57,657,-0.0289999999999999,-1.001,-0.035,0.286479,6.016058999999999,-0.7448454000000001,89.41582548,-2.03973048,-55.69724718,T02,0
6.58,658,-0.027,-1.0,-0.037,0.6302538000000001,5.3858052,-0.1718874,89.42155505999996,-2.03973048,-55.64568095999999,T02,0
6.59,659,-0.026,-1.001,-0.034,1.145916,4.583664,0.0,89.43301421999998,-2.03973048,-55.59984432,T02,0
6.6,660,-0.025,-1.003,-0.034,1.4896908000000002,3.8388186,0.1718874,89.37571842,-2.02254174,-55.54827810000001,T02,0
6.61,661,-0.0289999999999999,-1.004,-0.033,1.6042823999999998,3.0366774,0.1145916,89.38717758,-2.02827132,-55.5196302,T02,0
6.62,662,-0.031,-1.005,-0.031,2.0626488000000003,2.291832,0.0,89.4100959,-2.02827132,-55.49671188,T02,0
6.63,663,-0.026,-1.009,-0.03,2.7501984,1.7188740000000002,0.286479,89.4387438,-2.02827132,-55.47952314000001,T02,0
6.64,664,-0.024,-1.008,-0.035,3.0939732,0.8021411999999999,0.4010705999999999,89.46739170000002,-2.0340009,-55.46806398,T02,0
6.65,665,-0.025,-1.0,-0.035,4.8701430000000006,0.4583664000000001,0.4583664000000001,89.46166212,-2.02254174,-55.45660482000001,T02,0
6.66,666,-0.0289999999999999,-1.0,-0.03,6.016058999999999,0.286479,0.572958,89.5246875,-2.02827132,-55.45087524,T02,0
6.67,667,-0.034,-1.001,-0.024,6.016058999999999,0.1145916,0.572958,89.5819833,-2.0340009,-55.45087524,T02,0
6.68,668,-0.035,-1.003,-0.02,6.2452422,-0.1145916,0.6302538000000001,89.64500868,-2.03973048,-55.45087524,T02,0
6.69,669,-0.036,-1.004,-0.017,5.6149884000000005,-0.6875496,0.286479,89.70230448,-2.03973048,-55.45660482000001,T02,0
6.7,670,-0.034,-1.007,-0.017,4.9274388,-1.2605076000000002,0.1145916,89.70803406,-2.0340009,-55.4623344,T02,0
6.71,671,-0.036,-1.008,-0.019,4.3544808,-1.2605076000000002,0.0,89.75387070000002,-2.0340009,-55.47379356,T02,0
6.72,672,-0.0409999999999999,-1.006,-0.017,3.9534102,-0.8594370000000001,0.0572958,89.79397776,-2.0340009,-55.48525271999999,T02,0
6.73,673,-0.038,-1.003,-0.017,3.2658606,-0.6875496,0.4010705999999999,89.82835524000002,-2.03973048,-55.49098230000001,T02,0
6.74,674,-0.032,-1.003,-0.019,2.3491278,-1.145916,0.8021411999999999,89.85700313999996,-2.04546006,-55.50244146,T02,0
6.75,675,-0.033,-1.003,-0.023,2.0626488000000003,-1.2032118,0.9167328,89.79397776,-2.03973048,-55.50244146,T02,0
6.76,676,-0.037,-1.008,-0.023,3.0366774,-0.286479,0.6875496,89.82835524000002,-2.05118964,-55.50817104,T02,0
6.77,677,-0.048,-1.007,-0.017,3.5523396000000003,0.572958,0.3437748,89.86273272,-2.05118964,-55.50244146,T02,0
6.78,678,-0.059,-1.003,-0.012,3.9534102,1.8907614,0.0572958,89.90283978,-2.05118964,-55.47952314000001,T02,0
6.79,679,-0.063,-1.003,-0.017,3.5523396000000003,2.6356068,-0.1718874,89.93721726,-2.05118964,-55.45087524,T02,0
6.8,680,-0.061,-1.004,-0.023,3.0939732,2.5210152000000003,-0.1145916,89.90856936,-2.07983754,-55.42222733999999,T02,0
6.81,681,-0.052,-1.005,-0.0279999999999999,3.0939732,2.2345362,-0.1718874,89.93721726,-2.07410796,-55.39930902,T02,0
6.82,682,-0.04,-1.005,-0.024,3.3231564,2.0626488000000003,-0.1145916,89.97159474,-2.07410796,-55.38212028,T02,0
6.83,683,-0.034,-1.006,-0.015,3.6096354,1.4896908000000002,-0.1145916,90.00597222,-2.07410796,-55.36493154,T02,0
6.84,684,-0.03,-1.007,-0.0069999999999999,3.6096354,0.572958,0.0572958,90.04034970000002,-2.07410796,-55.35920196000001,T02,0
6.85,685,-0.026,-1.007,-0.008,3.380452200000001,-0.6302538000000001,0.4583664000000001,90.02316096,-2.05691922,-55.35347237999999,T02,0
6.86,686,-0.0279999999999999,-1.004,-0.011,2.6356068,-1.9480572,0.6875496,90.05180886000002,-2.0626488000000003,-55.37639069999999,T02,0
6.87,687,-0.035,-1.007,-0.011,1.8907614,-2.9220858,0.6302538000000001,90.07472718,-2.06837838,-55.40503860000001,T02,0
6.88,688,-0.043,-1.014,-0.013,1.3750992,-3.3231564,0.5156622000000001,90.09191592,-2.07410796,-55.43941608,T02,0
6.89,689,-0.052,-1.018,-0.015,0.6875496,-3.2658606,0.286479,90.0976455,-2.07410796,-55.46806398,T02,0
6.9,690,-0.064,-1.019,-0.02,0.286479,-3.0366774,-0.1145916,90.00597222,-2.13140376,-55.49671188,T02,0
6.91,691,-0.072,-1.014,-0.02,0.1718874,-2.1772404,-0.3437748,90.0117018,-2.12567418,-55.5196302,T02,0
6.92,692,-0.075,-1.012,-0.021,0.1145916,-1.3750992,-0.3437748,90.0117018,-2.1199446,-55.53108936,T02,0
6.93,693,-0.069,-1.012,-0.02,0.1718874,-0.6302538000000001,-0.1145916,90.01743138,-2.1199446,-55.53681894,T02,0
6.94,694,-0.051,-1.007,-0.019,0.1718874,-0.6302538000000001,0.2291832000000001,90.01743138,-2.1199446,-55.54827810000001,T02,0
6.95,695,-0.037,-0.998,-0.018,0.1718874,-1.2605076000000002,0.4010705999999999,89.88565104,-2.09702628,-55.54254852,T02,0
6.96,696,-0.03,-0.993,-0.018,0.2291832000000001,-2.1199446,0.5156622000000001,89.88565104,-2.10275586,-55.55973726,T02,0
6.97,697,-0.031,-0.994,-0.02,0.3437748,-3.151269,0.6302538000000001,89.89138061999998,-2.10848544,-55.59411474,T02,0
6.98,698,-0.035,-0.997,-0.02,0.286479,-3.9534102,0.6875496,89.8971102,-2.11421502,-55.6342218,T02,0
6.99,699,-0.043,-0.996,-0.022,0.1718874,-4.010706000000001,0.572958,89.90283978,-2.1199446,-55.67432886,T02,0
7.0,700,-0.049,-1.001,-0.022,0.0572958,-4.010706000000001,0.6302538000000001,89.83408482,-2.14286292,-55.708706340000006,T02,0
7.01,701,-0.053,-1.007,-0.023,-0.1145916,-4.010706000000001,0.572958,89.83408482,-2.1485925000000003,-55.74308382,T02,0
7.02,702,-0.054,-1.015,-0.022,-0.2291832000000001,-3.724227,0.6875496,89.83408482,-2.15432208,-55.78319088000001,T02,0
7.03,703,-0.052,-1.018,-0.025,-0.5156622000000001,-3.3231564,0.7448454000000001,89.82835524000002,-2.16005166,-55.81756836000001,T02,0
7.04,704,-0.052,-1.012,-0.026,-0.7448454000000001,-3.2085648,0.6875496,89.82262566,-2.1657812400000003,-55.84621625999999,T02,0
7.05,705,-0.054,-1.005,-0.027,-0.6302538000000001,-3.2658606,0.572958,89.73668196000001,-2.18869956,-55.87486416,T02,0
7.06,706,-0.054,-0.998,-0.033,-0.6302538000000001,-3.151269,0.6302538000000001,89.73095237999998,-2.19442914,-55.90351206,T02,0
7.07,707,-0.052,-0.991,-0.031,-0.2291832000000001,-2.86479,0.7448454000000001,89.73095237999998,-2.20015872,-55.93215996,T02,0
7.08,708,-0.05,-0.991,-0.025,0.4583664000000001,-2.9220858,0.8594370000000001,89.73668196000001,-2.21161788,-55.96080786,T02,0
7.09,709,-0.048,-1.0,-0.018,0.9740286,-2.86479,1.0313244,89.74814112,-2.21734746,-55.98945576,T02,0
7.1,710,-0.051,-1.005,-0.011,1.432395,-3.151269,1.0313244,89.72522280000004,-2.24026578,-56.01810366,T02,0
7.11,711,-0.055,-1.006,-0.01,1.6615782,-3.151269,0.8594370000000001,89.74814112,-2.25172494,-56.05248114,T02,0
7.12,712,-0.06,-1.007,-0.011,1.6615782,-3.0939732,0.6875496,89.76532986,-2.25745452,-56.08112903999999,T02,0
7.13,713,-0.063,-1.006,-0.011,1.7761698,-2.9220858,0.6302538000000001,89.7825186,-2.2631841,-56.10977694,T02,0
7.14,714,-0.062,-1.005,-0.008,1.7761698,-2.6356068,0.572958,89.80543692,-2.26891368,-56.138424840000006,T02,0
7.15,715,-0.057,-1.008,-0.01,1.7188740000000002,-2.4637194,0.6302538000000001,89.77678902,-2.2918320000000003,-56.16134316,T02,0
7.16,716,-0.052,-1.011,-0.011,1.432395,-2.4064236,0.6875496,89.79397776,-2.29756158,-56.18426148,T02,0
7.17,717,-0.051,-1.01,-0.016,1.3178034,-2.7501984,0.8021411999999999,89.8111665,-2.30329116,-56.20717980000001,T02,0
7.18,718,-0.055,-1.004,-0.0139999999999999,1.6042823999999998,-3.151269,1.0313244,89.82835524000002,-2.3147503200000004,-56.24155728000001,T02,0
7.19,719,-0.0559999999999999,-1.001,-0.012,2.0053530000000004,-3.2658606,1.2032118,89.85127356000002,-2.32620948,-56.27020517999999,T02,0
7.2,720,-0.06,-0.997,-0.0069999999999999,2.1772404,-3.151269,1.2605076000000002,89.84554397999999,-2.35485738,-56.30458266,T02,0
7.21,721,-0.063,-1.001,-0.004,2.2345362,-2.7501984,1.145916,89.8684623,-2.36631654,-56.33323056,T02,0
7.22,722,-0.064,-1.005,-0.003,2.0053530000000004,-2.1772404,1.0313244,89.89138061999998,-2.37204612,-56.35041930000001,T02,0
7.229999999999999,723,-0.061,-1.007,-0.002,1.7761698,-1.7761698,1.0886202,89.90856936,-2.38350528,-56.36760803999999,T02,0
7.24,724,-0.061,-1.008,-0.005,1.5469866,-1.6042823999999998,1.145916,89.9257581,-2.39496444,-56.38479678,T02,0
7.25,725,-0.061,-1.005,-0.005,1.432395,-1.5469866,1.2032118,89.8971102,-2.4350715000000003,-56.40198552,T02,0
7.26,726,-0.061,-1.006,-0.002,1.6615782,-1.5469866,1.0886202,89.91429894,-2.44080108,-56.41344468,T02,0
7.27,727,-0.059,-1.009,0.001,1.5469866,-1.3750992,0.9740286,89.93148768,-2.45226024,-56.43063342000001,T02,0
7.28,728,-0.0559999999999999,-1.011,0.0,1.2605076000000002,-1.5469866,0.9740286,89.94294684,-2.4637194,-56.44782216,T02,0
7.29,729,-0.053,-1.012,0.0,0.9740286,-2.0626488000000003,1.145916,89.95440599999998,-2.47517856,-56.4650109,T02,0
